t,Ax,Ay,Az,t,Ex,Ey,Ez,t,Wx,Wy,Wz
1667.00,0.01,0.00,-0.39,1669.00,0.00,-1.56,0.00,1671.00,0.00,0.19,0.00,
1676.00,0.00,0.00,-0.37,1678.00,0.00,-1.56,0.00,1680.00,-0.19,-0.06,0.00,
1686.00,0.00,-0.01,-0.38,1687.00,0.00,-1.56,0.00,1688.00,-0.19,-0.06,0.00,
1694.00,0.00,-0.02,-0.39,1695.00,0.00,-1.56,0.00,1697.00,-0.06,-0.06,-0.12,
1703.00,0.02,-0.03,-0.36,1704.00,0.00,-1.56,0.00,1708.00,0.00,0.12,-0.06,
1714.00,0.02,-0.01,-0.39,1715.00,0.00,-1.56,0.00,1716.00,0.00,0.12,-0.06,
1722.00,0.01,0.00,-0.40,1724.00,0.00,-1.56,0.00,1725.00,-0.06,0.00,-0.06,
1730.00,0.01,-0.02,-0.37,1732.00,0.00,-1.56,0.00,1733.00,0.00,-0.25,-0.06,
1738.00,0.01,-0.02,-0.37,1740.00,0.00,-1.56,0.00,1741.00,0.00,0.19,0.25,
1746.00,0.00,-0.02,-0.39,1748.00,0.00,-1.56,0.00,1751.00,-0.12,0.12,0.00,
1756.00,0.01,-0.02,-0.38,1759.00,0.00,-1.56,0.00,1761.00,0.00,0.25,0.12,
1766.00,0.01,-0.01,-0.39,1768.00,0.00,-1.56,0.00,1770.00,0.00,0.25,0.12,
1776.00,0.02,-0.01,-0.38,1778.00,0.00,-1.56,0.00,1780.00,-0.06,-0.19,0.00,
1786.00,0.00,-0.01,-0.37,1787.00,0.00,-1.56,0.00,1788.00,0.00,-0.25,0.00,
1796.00,0.02,-0.02,-0.37,1798.00,0.00,-1.56,0.00,1800.00,0.00,0.00,0.00,
1806.00,0.02,0.00,-0.36,1808.00,0.00,-1.56,0.00,1810.00,0.12,-0.06,-0.06,
1816.00,0.01,-0.02,-0.40,1818.00,0.00,-1.56,0.00,1820.00,0.00,0.12,-0.06,
1825.00,0.00,-0.01,-0.37,1828.00,0.00,-1.56,0.00,1830.00,-0.06,0.25,-0.06,
1836.00,0.01,-0.01,-0.39,1838.00,0.00,-1.56,0.00,1839.00,-0.19,0.12,-0.12,
1844.00,0.01,-0.02,-0.36,1845.00,0.00,-1.56,0.00,1847.00,-0.19,0.12,-0.12,
1853.00,0.00,-0.01,-0.36,1855.00,0.00,-1.56,0.00,1856.00,-0.12,-0.12,0.00,
1862.00,0.02,0.00,-0.38,1863.00,0.00,-1.56,0.00,1864.00,-0.06,0.06,0.00,
1870.00,0.02,0.00,-0.38,1871.00,0.00,-1.56,0.00,1872.00,0.06,-0.19,0.12,
1879.00,0.00,0.01,-0.40,1881.00,0.00,-1.56,0.00,1883.00,-0.06,0.00,0.00,
1888.00,0.02,0.00,-0.37,1889.00,0.00,-1.56,0.00,1891.00,0.06,-0.06,0.12,
1896.00,0.00,-0.02,-0.42,1899.00,0.00,-1.56,0.00,1901.00,0.06,-0.06,0.12,
1906.00,0.02,-0.03,-0.38,1908.00,0.00,-1.56,0.00,1910.00,0.06,0.06,-0.12,
1916.00,0.01,-0.02,-0.39,1918.00,0.00,-1.56,0.00,1921.00,-0.06,-0.19,-0.12,
1927.00,0.02,0.00,-0.38,1929.00,0.00,-1.56,0.00,1931.00,0.00,0.25,-0.06,
1937.00,0.03,-0.01,-0.38,1938.00,0.00,-1.56,0.00,1939.00,0.00,0.00,-0.12,
1945.00,0.01,-0.02,-0.37,1947.00,0.00,-1.56,0.00,1949.00,0.00,-0.19,0.00,
1955.00,0.00,0.00,-0.37,1957.00,0.00,-1.56,0.00,1959.00,0.00,0.06,-0.19,
1966.00,0.00,-0.01,-0.38,1969.00,0.00,-1.56,0.00,1971.00,0.06,0.00,0.00,
1976.00,0.00,0.00,-0.39,1978.00,0.00,-1.56,0.00,1980.00,-0.06,-0.06,-0.06,
1986.00,0.01,-0.02,-0.36,1988.00,0.00,-1.56,0.00,1989.00,0.12,0.00,0.12,
1995.00,0.02,0.00,-0.35,1997.00,0.00,-1.56,0.00,1999.00,0.00,0.06,0.00,
2006.00,0.00,0.00,-0.38,2008.00,0.00,-1.56,0.00,2010.00,0.00,0.06,0.00,
2016.00,0.00,0.00,-0.39,2018.00,0.00,-1.56,0.00,2020.00,0.00,0.06,0.06,
2026.00,0.02,-0.01,-0.38,2028.00,0.00,-1.56,0.00,2030.00,-0.12,0.00,0.06,
2036.00,0.00,0.00,-0.38,2037.00,0.00,-1.56,0.00,2038.00,-0.06,-0.06,0.00,
2044.00,0.01,0.00,-0.35,2045.00,0.00,-1.56,0.00,2048.00,-0.19,-0.25,-0.06,
2054.00,0.00,0.00,-0.36,2055.00,0.00,-1.56,0.00,2057.00,-0.06,-0.06,0.00,
2063.00,0.00,-0.02,-0.38,2064.00,0.00,-1.56,0.00,2065.00,0.00,0.06,-0.25,
2070.00,0.00,-0.02,-0.38,2072.00,0.00,-1.56,0.00,2073.00,0.25,-0.06,-0.06,
2078.00,0.01,-0.01,-0.37,2080.00,0.00,-1.56,0.00,2082.00,0.25,-0.06,0.06,
2088.00,0.02,0.00,-0.39,2089.00,0.00,-1.56,0.00,2092.00,0.25,-0.06,0.06,
2097.00,0.00,0.01,-0.36,2099.00,0.00,-1.56,0.00,2101.00,0.12,0.12,0.19,
2107.00,0.01,0.00,-0.38,2109.00,0.00,-1.56,0.00,2111.00,0.06,0.06,0.00,
2117.00,0.01,-0.02,-0.40,2119.00,0.00,-1.56,0.00,2121.00,0.06,0.06,0.19,
2127.00,0.00,-0.03,-0.37,2129.00,0.00,-1.56,0.00,2131.00,-0.06,0.06,-0.12,
2138.00,0.00,-0.02,-0.37,2139.00,0.00,-1.56,0.00,2140.00,-0.06,0.12,0.06,
2146.00,0.00,-0.01,-0.39,2148.00,0.00,-1.56,0.00,2150.00,0.12,-0.12,0.00,
2157.00,0.00,-0.02,-0.35,2159.00,0.00,-1.56,0.00,2161.00,0.00,-0.12,-0.06,
2167.00,0.02,0.00,-0.38,2169.00,0.00,-1.56,0.00,2171.00,0.06,0.12,-0.06,
2178.00,0.00,0.00,-0.39,2180.00,0.00,-1.56,0.00,2182.00,0.06,-0.19,-0.06,
2188.00,0.01,-0.02,-0.37,2189.00,0.00,-1.56,0.00,2190.00,0.00,0.06,-0.06,
2196.00,0.00,0.00,-0.34,2198.00,0.00,-1.56,0.00,2200.00,0.06,-0.06,0.00,
2207.00,0.00,-0.01,-0.38,2209.00,0.00,-1.56,0.00,2211.00,0.06,-0.12,0.06,
2217.00,0.00,-0.03,-0.39,2220.00,0.00,-1.56,0.00,2222.00,0.12,-0.06,0.00,
2228.00,0.02,-0.02,-0.37,2230.00,0.00,-1.56,0.00,2232.00,0.06,-0.06,0.12,
2238.00,0.00,0.00,-0.37,2239.00,0.00,-1.56,0.00,2240.00,0.12,0.00,0.06,
2246.00,0.00,0.00,-0.40,2247.00,0.00,-1.56,0.00,2249.00,-0.06,-0.06,-0.06,
2255.00,0.01,0.01,-0.37,2256.00,0.00,-1.56,0.00,2258.00,-0.06,0.06,0.06,
2266.00,0.01,-0.01,-0.38,2267.00,0.00,-1.56,0.00,2268.00,0.00,0.00,-0.12,
2274.00,0.02,-0.01,-0.37,2275.00,0.00,-1.56,0.00,2276.00,0.00,-0.19,0.06,
2282.00,0.02,-0.01,-0.37,2284.00,0.00,-1.56,0.00,2285.00,0.00,0.06,0.06,
2290.00,0.01,0.00,-0.36,2292.00,0.00,-1.56,0.00,2293.00,-0.12,-0.19,0.06,
2299.00,0.01,-0.01,-0.36,2301.00,0.00,-1.56,0.00,2304.00,-0.12,-0.12,0.12,
2309.00,0.01,0.00,-0.37,2311.00,0.00,-1.56,0.00,2313.00,0.06,0.06,0.12,
2318.00,0.00,0.00,-0.40,2320.00,0.00,-1.56,0.00,2322.00,0.06,0.06,0.12,
2328.00,0.00,-0.01,-0.36,2330.00,0.00,-1.56,0.00,2332.00,0.00,0.00,-0.06,
2338.00,0.01,0.00,-0.36,2339.00,0.00,-1.56,0.00,2340.00,0.06,-0.06,-0.06,
2347.00,0.00,-0.01,-0.36,2348.00,0.00,-1.56,0.00,2350.00,0.31,-0.06,0.06,
2356.00,0.02,0.02,-0.37,2357.00,0.00,-1.56,0.00,2359.00,-0.06,-0.12,-0.06,
2365.00,0.01,0.00,-0.37,2366.00,0.00,-1.56,0.00,2367.00,-0.12,-0.12,-0.06,
2373.00,0.01,0.00,-0.36,2374.00,0.00,-1.56,0.00,2375.00,0.00,0.06,0.06,
2380.00,0.01,0.00,-0.36,2382.00,0.00,-1.56,0.00,2384.00,0.12,0.12,0.06,
2390.00,0.01,-0.02,-0.37,2392.00,0.00,-1.56,0.00,2394.00,-0.06,-0.06,0.06,
2399.00,0.03,-0.02,-0.36,2401.00,0.00,-1.56,0.00,2403.00,-0.06,-0.06,0.06,
2409.00,0.01,0.00,-0.36,2411.00,0.00,-1.56,0.00,2413.00,-0.06,0.00,0.06,
2418.00,0.00,-0.01,-0.42,2420.00,0.00,-1.56,0.00,2422.00,0.12,-0.12,-0.12,
2428.00,0.01,-0.03,-0.35,2430.00,0.00,-1.56,0.00,2433.00,0.06,0.06,-0.06,
2439.00,0.00,0.00,-0.37,2440.00,0.00,-1.56,0.00,2441.00,-0.12,0.06,0.06,
2447.00,0.01,0.00,-0.36,2450.00,0.00,-1.56,0.00,2452.00,0.00,0.06,-0.06,
2458.00,0.01,0.00,-0.37,2460.00,0.00,-1.56,0.00,2462.00,-0.06,-0.12,0.19,
2468.00,0.00,0.00,-0.41,2470.00,0.00,-1.56,0.00,2472.00,0.06,0.06,-0.06,
2479.00,0.00,-0.02,-0.39,2481.00,0.00,-1.56,0.00,2483.00,0.00,-0.06,-0.06,
2489.00,0.00,0.00,-0.38,2490.00,0.00,-1.56,0.00,2491.00,-0.06,-0.06,0.12,
2497.00,0.01,-0.01,-0.35,2499.00,0.00,-1.56,0.00,2501.00,0.06,-0.12,0.00,
2507.00,0.00,0.00,-0.37,2509.00,0.00,-1.56,0.00,2511.00,-0.06,0.06,-0.06,
2519.00,0.01,-0.02,-0.40,2521.00,0.00,-1.56,0.00,2523.00,0.00,0.00,0.06,
2529.00,0.01,-0.01,-0.36,2531.00,0.00,-1.56,0.00,2533.00,0.12,0.06,0.00,
2539.00,0.02,-0.01,-0.39,2540.00,0.00,-1.56,0.00,2541.00,0.00,0.25,-0.06,
2547.00,0.01,-0.01,-0.37,2548.00,0.00,-1.56,0.00,2550.00,0.06,-0.06,0.00,
2556.00,0.00,0.00,-0.37,2557.00,0.00,-1.56,0.00,2560.00,0.19,0.12,0.00,
2566.00,0.01,-0.01,-0.41,2567.00,0.00,-1.56,0.00,2568.00,0.00,0.19,-0.06,
2574.00,0.01,-0.01,-0.38,2575.00,0.00,-1.56,0.00,2577.00,-0.06,-0.06,-0.12,
2582.00,0.01,-0.01,-0.38,2584.00,0.00,-1.56,0.00,2585.00,0.00,-0.06,-0.06,
2590.00,0.01,0.00,-0.36,2592.00,0.00,-1.56,0.00,2594.00,-0.06,0.12,0.00,
2599.00,0.00,-0.01,-0.37,2601.00,0.00,-1.56,0.00,2605.00,0.00,0.00,-0.06,
2610.00,0.00,0.01,-0.39,2612.00,0.00,-1.56,0.00,2614.00,0.00,0.00,-0.06,
2619.00,0.00,0.00,-0.40,2621.00,0.00,-1.56,0.00,2623.00,0.06,-0.06,-0.12,
2629.00,0.01,-0.01,-0.37,2631.00,0.00,-1.56,0.00,2633.00,0.06,-0.19,0.00,
2639.00,0.03,0.00,-0.36,2640.00,0.00,-1.56,0.00,2641.00,0.00,-0.06,0.00,
2649.00,0.02,-0.02,-0.35,2651.00,0.00,-1.56,0.00,2653.00,0.00,0.12,-0.19,
2659.00,0.01,0.00,-0.37,2661.00,0.00,-1.56,0.00,2663.00,0.00,-0.12,0.00,
2669.00,0.01,-0.01,-0.40,2671.00,0.00,-1.56,0.00,2673.00,0.19,-0.37,0.00,
2679.00,0.02,-0.01,-0.38,2681.00,0.00,-1.56,0.00,2683.00,-0.06,0.00,0.06,
2690.00,0.00,-0.03,-0.36,2691.00,0.00,-1.56,0.00,2692.00,0.00,0.06,0.00,
2698.00,0.02,-0.01,-0.39,2700.00,0.00,-1.56,0.00,2702.00,-0.06,0.12,-0.06,
2708.00,0.02,0.00,-0.37,2710.00,0.00,-1.56,0.00,2712.00,0.00,0.06,0.12,
2719.00,0.01,0.00,-0.39,2721.00,0.00,-1.56,0.00,2723.00,0.00,0.00,-0.12,
2729.00,0.01,0.00,-0.36,2732.00,0.00,-1.56,0.00,2734.00,0.00,-0.06,0.00,
2740.00,0.01,-0.01,-0.38,2741.00,0.00,-1.56,0.00,2742.00,0.00,0.00,-0.06,
2748.00,0.00,-0.01,-0.39,2749.00,0.00,-1.56,0.00,2751.00,0.12,-0.25,0.12,
2757.00,0.00,0.00,-0.39,2758.00,0.00,-1.56,0.00,2760.00,0.06,-0.12,-0.12,
2766.00,0.02,0.00,-0.42,2767.00,0.00,-1.56,0.00,2768.00,0.06,-0.06,-0.06,
2775.00,0.01,-0.01,-0.39,2776.00,0.00,-1.56,0.00,2777.00,-0.06,0.00,0.00,
2783.00,0.01,-0.01,-0.39,2785.00,0.00,-1.56,0.00,2786.00,0.00,-0.12,0.06,
2791.00,0.00,-0.01,-0.37,2793.00,0.00,-1.56,0.00,2795.00,0.12,0.00,-0.06,
2800.00,0.01,0.00,-0.38,2802.00,0.00,-1.56,0.00,2804.00,0.12,0.00,-0.06,
2810.00,0.02,-0.01,-0.37,2812.00,0.00,-1.56,0.00,2814.00,-0.06,0.06,0.00,
2821.00,0.01,-0.01,-0.40,2823.00,0.00,-1.56,0.00,2825.00,0.00,-0.12,0.12,
2830.00,0.00,0.00,-0.38,2832.00,0.00,-1.56,0.00,2834.00,-0.06,-0.12,-0.06,
2840.00,0.01,-0.01,-0.37,2841.00,0.00,-1.56,0.00,2842.00,0.19,0.00,-0.12,
2848.00,0.01,0.00,-0.38,2849.00,0.00,-1.56,0.00,2851.00,0.06,-0.06,-0.12,
2859.00,0.00,-0.02,-0.37,2860.00,0.00,-1.56,0.00,2862.00,0.06,0.00,0.00,
2868.00,0.01,0.00,-0.37,2869.00,0.00,-1.56,0.00,2871.00,0.00,0.12,0.00,
2877.00,0.01,-0.01,-0.36,2878.00,0.00,-1.56,0.00,2879.00,0.19,0.00,0.12,
2884.00,0.01,-0.01,-0.36,2886.00,0.00,-1.56,0.00,2887.00,0.06,-0.06,0.06,
2892.00,0.01,-0.01,-0.33,2894.00,0.00,-1.56,0.00,2896.00,0.00,-0.19,0.00,
2902.00,0.02,0.00,-0.39,2904.00,0.00,-1.56,0.00,2906.00,0.00,0.12,-0.06,
2911.00,0.01,-0.01,-0.37,2913.00,0.00,-1.56,0.00,2915.00,0.12,0.12,0.00,
2921.00,0.00,0.00,-0.37,2923.00,0.00,-1.56,0.00,2925.00,0.12,0.12,0.00,
2930.00,0.02,-0.01,-0.39,2932.00,0.00,-1.56,0.00,2934.00,0.06,0.00,0.06,
2940.00,0.00,0.00,-0.37,2941.00,0.00,-1.56,0.00,2942.00,0.00,0.06,-0.06,
2950.00,0.00,0.00,-0.36,2951.00,0.00,-1.56,0.00,2953.00,-0.06,-0.06,-0.12,
2960.00,0.00,-0.01,-0.37,2961.00,0.00,-1.56,0.00,2963.00,0.06,-0.06,0.06,
2970.00,0.00,0.00,-0.37,2972.00,0.00,-1.56,0.00,2974.00,0.12,0.00,0.12,
2980.00,0.00,-0.02,-0.40,2982.00,0.00,-1.56,0.00,2984.00,0.19,0.06,0.06,
2991.00,0.00,0.00,-0.37,2992.00,0.00,-1.56,0.00,2993.00,0.12,0.00,0.00,
2999.00,0.02,-0.01,-0.36,3001.00,0.00,-1.56,0.00,3003.00,0.12,-0.06,-0.06,
3009.00,0.00,0.00,-0.37,3010.00,0.00,-1.56,0.00,3012.00,0.06,-0.12,-0.06,
3018.00,0.00,0.00,-0.37,3019.00,0.00,-1.56,0.00,3020.00,0.19,0.00,0.06,
3027.00,0.00,-0.03,-0.37,3028.00,0.00,-1.56,0.00,3030.00,0.06,0.06,0.00,
3035.00,0.00,-0.03,-0.37,3037.00,0.00,-1.56,0.00,3038.00,0.00,-0.12,0.00,
3043.00,0.01,0.00,-0.37,3045.00,0.00,-1.56,0.00,3047.00,0.12,0.00,-0.06,
3052.00,0.00,0.00,-0.37,3054.00,0.00,-1.56,0.00,3056.00,0.12,0.00,0.12,
3061.00,0.01,-0.03,-0.36,3063.00,0.00,-1.56,0.00,3065.00,0.12,0.00,0.12,
3072.00,0.01,0.00,-0.39,3074.00,0.00,-1.56,0.00,3076.00,0.00,0.19,-0.12,
3082.00,0.01,-0.01,-0.37,3084.00,0.00,-1.56,0.00,3086.00,0.06,0.19,0.00,
3092.00,0.02,0.00,-0.36,3093.00,0.00,-1.56,0.00,3094.00,0.06,0.06,0.00,
3100.00,0.01,-0.01,-0.38,3102.00,0.00,-1.56,0.00,3104.00,0.19,-0.19,0.00,
3111.00,0.00,0.00,-0.36,3113.00,0.00,-1.56,0.00,3116.00,0.25,0.00,-0.06,
3122.00,0.00,0.00,-0.36,3124.00,0.00,-1.56,0.00,3126.00,0.00,0.12,-0.06,
3131.00,0.01,-0.03,-0.37,3133.00,0.00,-1.56,0.00,3135.00,0.06,0.12,0.12,
3141.00,0.02,-0.02,-0.38,3143.00,0.00,-1.56,0.00,3144.00,-0.12,0.19,-0.06,
3150.00,0.01,-0.01,-0.39,3151.00,0.00,-1.56,0.00,3153.00,-0.06,0.00,-0.06,
3161.00,0.00,0.00,-0.38,3162.00,0.00,-1.56,0.00,3164.00,-0.06,-0.12,0.06,
3170.00,0.00,-0.02,-0.42,3172.00,0.00,-1.56,0.00,3174.00,0.06,0.00,0.00,
3181.00,0.00,-0.02,-0.38,3183.00,0.00,-1.56,0.00,3185.00,0.12,0.00,0.00,
3191.00,0.00,0.00,-0.38,3192.00,0.00,-1.56,0.00,3193.00,0.19,0.00,-0.06,
3200.00,0.00,-0.02,-0.37,3201.00,0.00,-1.56,0.00,3203.00,-0.06,0.06,0.00,
3209.00,0.02,0.01,-0.37,3210.00,0.00,-1.56,0.00,3212.00,-0.12,0.37,-0.06,
3218.00,0.00,-0.01,-0.40,3219.00,0.00,-1.56,0.00,3220.00,-0.12,0.19,-0.12,
3226.00,0.00,-0.01,-0.40,3228.00,0.00,-1.56,0.00,3229.00,0.06,0.19,0.06,
3234.00,0.00,-0.01,-0.40,3236.00,0.00,-1.56,0.00,3238.00,0.12,0.19,-0.06,
3244.00,0.01,-0.01,-0.37,3245.00,0.00,-1.56,0.00,3247.00,-0.06,0.25,-0.19,
3252.00,0.01,0.00,-0.37,3254.00,0.00,-1.56,0.00,3256.00,-0.06,0.25,-0.19,
3262.00,0.00,-0.02,-0.36,3264.00,0.00,-1.56,0.00,3266.00,-0.06,-0.06,0.00,
3272.00,0.00,0.00,-0.40,3274.00,0.00,-1.56,0.00,3276.00,-0.06,-0.06,-0.06,
3282.00,0.00,0.00,-0.38,3284.00,0.00,-1.56,0.00,3287.00,0.06,0.06,0.00,
3293.00,0.00,-0.02,-0.37,3294.00,0.00,-1.56,0.00,3295.00,-0.12,0.00,-0.19,
3301.00,0.00,0.00,-0.35,3303.00,0.00,-1.56,0.00,3305.00,-0.06,0.06,0.06,
3312.00,0.02,-0.02,-0.36,3314.00,0.00,-1.56,0.00,3316.00,0.19,0.00,0.00,
3322.00,0.01,-0.03,-0.40,3324.00,0.00,-1.56,0.00,3326.00,0.19,0.12,0.00,
3332.00,0.02,0.00,-0.39,3335.00,0.00,-1.56,0.00,3337.00,0.19,0.00,-0.19,
3343.00,0.01,-0.01,-0.40,3344.00,0.00,-1.56,0.00,3345.00,0.00,0.00,0.00,
3350.00,0.02,0.00,-0.36,3351.00,0.00,-1.56,0.00,3353.00,0.00,0.00,-0.06,
3359.00,-0.01,0.00,-0.39,3360.00,0.00,-1.56,0.00,3361.00,0.00,0.06,0.12,
3367.00,0.01,0.00,-0.40,3368.00,0.00,-1.56,0.00,3369.00,0.00,0.12,0.06,
3375.00,0.01,0.00,-0.40,3377.00,0.00,-1.56,0.00,3379.00,0.12,0.06,0.00,
3384.00,0.01,0.00,-0.36,3386.00,0.00,-1.56,0.00,3388.00,-0.06,0.00,0.00,
3393.00,0.00,0.00,-0.36,3394.00,0.00,-1.56,0.00,3396.00,-0.06,0.00,0.00,
3402.00,0.01,-0.02,-0.35,3404.00,0.00,-1.56,0.00,3406.00,0.00,0.12,0.12,
3412.00,0.00,0.00,-0.39,3415.00,0.00,-1.56,0.00,3417.00,0.00,0.06,0.06,
3423.00,0.01,0.02,-0.38,3425.00,0.00,-1.56,0.00,3427.00,-0.06,0.06,0.19,
3433.00,0.00,-0.02,-0.38,3435.00,0.00,-1.56,0.00,3437.00,0.00,0.06,0.06,
3443.00,0.01,-0.01,-0.36,3444.00,0.00,-1.56,0.00,3445.00,0.12,-0.12,0.12,
3451.00,0.02,0.00,-0.37,3452.00,0.00,-1.56,0.00,3456.00,0.00,0.00,0.06,
3462.00,0.02,-0.02,-0.39,3463.00,0.00,-1.56,0.00,3465.00,0.06,0.12,0.06,
3471.00,0.02,0.00,-0.38,3473.00,0.00,-1.56,0.00,3475.00,0.12,-0.06,0.12,
3481.00,0.00,0.00,-0.37,3483.00,0.00,-1.56,0.00,3485.00,0.12,0.06,0.19,
3491.00,0.00,-0.04,-0.37,3492.00,0.00,-1.56,0.00,3493.00,0.06,-0.19,0.06,
3500.00,0.01,-0.01,-0.37,3501.00,0.00,-1.56,0.00,3502.00,0.00,-0.06,0.00,
3507.00,0.01,-0.01,-0.37,3509.00,0.00,-1.56,0.00,3510.00,0.06,-0.06,0.00,
3515.00,0.02,-0.02,-0.37,3517.00,0.00,-1.56,0.00,3519.00,0.06,0.00,0.12,
3524.00,-0.01,0.00,-0.40,3526.00,0.00,-1.56,0.00,3528.00,0.12,0.12,0.12,
3533.00,0.00,-0.01,-0.36,3535.00,0.00,-1.56,0.00,3537.00,-0.06,-0.19,0.00,
3544.00,0.00,0.00,-0.35,3545.00,0.00,-1.56,0.00,3546.00,-0.06,-0.19,0.00,
3552.00,0.01,-0.01,-0.37,3554.00,0.00,-1.56,0.00,3556.00,0.12,-0.06,0.12,
3562.00,0.02,0.00,-0.39,3564.00,0.00,-1.56,0.00,3566.00,0.00,-0.06,0.12,
3573.00,0.02,-0.01,-0.39,3575.00,0.00,-1.56,0.00,3577.00,0.00,0.00,0.00,
3584.00,0.01,-0.01,-0.41,3586.00,0.00,-1.56,0.00,3588.00,0.19,-0.06,0.19,
3594.00,0.00,-0.02,-0.39,3595.00,0.00,-1.56,0.00,3596.00,0.19,0.00,0.06,
3602.00,0.03,-0.04,-0.36,3604.00,0.00,-1.56,0.00,3606.00,0.06,0.06,0.06,
3613.00,0.01,0.00,-0.39,3615.00,0.00,-1.56,0.00,3617.00,0.06,0.06,0.06,
3623.00,0.00,-0.02,-0.40,3625.00,0.00,-1.56,0.00,3628.00,0.00,0.06,0.25,
3634.00,0.02,-0.03,-0.36,3636.00,0.00,-1.56,0.00,3638.00,0.19,-0.06,0.06,
3644.00,0.02,0.00,-0.38,3645.00,0.00,-1.56,0.00,3646.00,0.06,-0.25,0.06,
3652.00,-0.01,0.00,-0.36,3653.00,0.00,-1.56,0.00,3655.00,-0.06,-0.25,-0.06,
3661.00,0.01,0.00,-0.35,3663.00,0.00,-1.56,0.00,3665.00,-0.06,0.00,0.06,
3672.00,0.00,-0.01,-0.37,3673.00,0.00,-1.56,0.00,3675.00,-0.06,-0.12,0.12,
3681.00,0.01,0.00,-0.37,3682.00,0.00,-1.56,0.00,3683.00,0.00,-0.25,-0.12,
3689.00,0.00,0.00,-0.37,3690.00,0.00,-1.56,0.00,3691.00,0.00,-0.06,0.06,
3696.00,0.00,0.00,-0.37,3698.00,0.00,-1.56,0.00,3700.00,0.12,-0.06,0.19,
3705.00,0.00,-0.01,-0.38,3707.00,0.00,-1.56,0.00,3709.00,-0.12,-0.12,-0.12,
3715.00,0.02,0.00,-0.36,3717.00,0.00,-1.56,0.00,3719.00,0.12,-0.25,0.12,
3724.00,0.02,0.00,-0.37,3726.00,0.00,-1.56,0.00,3728.00,0.12,-0.25,0.12,
3734.00,0.00,-0.03,-0.38,3736.00,0.00,-1.56,0.00,3738.00,0.12,-0.06,0.06,
3744.00,0.01,0.00,-0.38,3745.00,0.00,-1.56,0.00,3746.00,0.06,0.00,0.12,
3752.00,0.03,-0.01,-0.37,3755.00,0.00,-1.56,0.00,3757.00,0.12,0.12,0.06,
3763.00,0.01,-0.01,-0.38,3765.00,0.00,-1.56,0.00,3767.00,0.06,0.12,0.00,
3774.00,0.00,-0.03,-0.42,3776.00,0.00,-1.56,0.00,3778.00,0.19,-0.12,0.06,
3784.00,0.02,-0.01,-0.37,3786.00,0.00,-1.56,0.00,3788.00,0.19,0.00,-0.06,
3794.00,0.00,-0.01,-0.37,3795.00,0.00,-1.56,0.00,3796.00,0.00,-0.12,0.06,
3803.00,0.00,-0.01,-0.36,3805.00,0.00,-1.56,0.00,3807.00,0.12,0.06,0.31,
3813.00,0.01,-0.02,-0.34,3816.00,0.00,-1.56,0.00,3818.00,-0.12,-0.06,0.12,
3824.00,0.00,0.00,-0.39,3826.00,0.00,-1.56,0.00,3828.00,-0.06,0.06,-0.06,
3834.00,0.01,-0.01,-0.39,3836.00,0.00,-1.56,0.00,3838.00,-0.06,0.19,-0.06,
3845.00,0.00,0.00,-0.35,3846.00,0.00,-1.56,0.00,3847.00,0.00,-0.19,-0.06,
3852.00,0.00,-0.02,-0.36,3853.00,0.00,-1.56,0.00,3855.00,0.00,0.00,0.00,
3861.00,0.02,0.00,-0.37,3862.00,0.00,-1.56,0.00,3863.00,-0.06,0.12,0.06,
3868.00,0.02,0.00,-0.37,3870.00,0.00,-1.56,0.00,3871.00,0.00,0.19,-0.06,
3876.00,0.03,-0.02,-0.38,3878.00,0.00,-1.56,0.00,3880.00,-0.12,0.19,0.12,
3886.00,0.02,-0.01,-0.39,3888.00,0.00,-1.56,0.00,3890.00,-0.12,-0.12,-0.06,
3896.00,0.02,0.00,-0.39,3897.00,0.00,-1.56,0.00,3899.00,-0.12,-0.12,-0.06,
3904.00,0.02,0.01,-0.38,3907.00,0.00,-1.56,0.00,3909.00,0.00,-0.06,0.00,
3914.00,0.01,0.00,-0.39,3916.00,0.00,-1.56,0.00,3918.00,-0.12,0.12,0.00,
3924.00,0.03,0.00,-0.39,3927.00,0.00,-1.56,0.00,3929.00,0.00,0.25,0.06,
3935.00,0.00,0.00,-0.39,3937.00,0.00,-1.56,0.00,3939.00,0.00,0.19,-0.06,
3945.00,0.01,-0.02,-0.39,3946.00,0.00,-1.56,0.00,3947.00,-0.19,0.12,0.06,
3953.00,0.02,0.00,-0.35,3955.00,0.00,-1.56,0.00,3957.00,-0.12,-0.06,-0.06,
3964.00,0.00,-0.04,-0.37,3966.00,0.00,-1.56,0.00,3969.00,0.12,0.19,-0.06,
3975.00,0.01,-0.01,-0.43,3977.00,0.00,-1.56,0.00,3979.00,-0.06,0.06,0.00,
3985.00,0.01,-0.01,-0.36,3987.00,0.00,-1.56,0.00,3989.00,-0.19,0.06,0.19,
3995.00,0.02,-0.01,-0.38,3996.00,0.00,-1.56,0.00,3997.00,0.00,0.12,-0.06,
4004.00,0.00,0.00,-0.38,4006.00,0.00,-1.56,0.00,4008.00,0.00,0.12,0.06,
4015.00,0.00,-0.02,-0.36,4017.00,0.00,-1.56,0.00,4019.00,-0.12,-0.06,-0.06,
4025.00,0.02,0.00,-0.39,4027.00,0.00,-1.56,0.00,4029.00,0.00,-0.06,0.00,
4035.00,0.03,-0.02,-0.40,4037.00,0.00,-1.56,0.00,4039.00,0.12,0.00,0.00,
4045.00,0.00,-0.01,-0.36,4046.00,0.00,-1.56,0.00,4047.00,0.00,0.06,-0.06,
4054.00,0.01,0.00,-0.36,4055.00,0.00,-1.56,0.00,4057.00,0.00,0.12,0.06,
4063.00,0.01,0.00,-0.36,4064.00,0.00,-1.56,0.00,4066.00,-0.06,0.19,0.06,
4072.00,0.01,0.00,-0.41,4073.00,0.00,-1.56,0.00,4074.00,-0.12,0.25,0.00,
4080.00,0.02,0.00,-0.38,4081.00,0.00,-1.56,0.00,4083.00,-0.12,0.06,0.12,
4088.00,0.02,0.00,-0.38,4090.00,0.00,-1.56,0.00,4091.00,0.00,0.31,0.06,
4097.00,0.02,0.00,-0.37,4099.00,0.00,-1.56,0.00,4101.00,0.00,0.25,0.06,
4106.00,0.01,-0.01,-0.37,4108.00,0.00,-1.56,0.00,4110.00,-0.12,0.19,-0.06,
4116.00,0.01,0.00,-0.39,4118.00,0.00,-1.56,0.00,4120.00,-0.12,0.19,-0.06,
4125.00,0.02,0.00,-0.36,4128.00,0.00,-1.56,0.00,4130.00,0.06,0.00,0.12,
4135.00,0.00,0.00,-0.38,4137.00,0.00,-1.56,0.00,4140.00,-0.06,0.06,0.06,
4146.00,0.00,-0.01,-0.38,4147.00,0.00,-1.56,0.00,4148.00,-0.06,0.00,0.00,
4154.00,0.00,-0.01,-0.36,4156.00,0.00,-1.56,0.00,4158.00,-0.12,0.12,0.19,
4164.00,0.02,0.00,-0.38,4166.00,0.00,-1.56,0.00,4168.00,0.12,0.00,0.00,
4175.00,0.00,-0.02,-0.39,4177.00,0.00,-1.56,0.00,4179.00,-0.12,-0.06,-0.12,
4186.00,0.02,-0.01,-0.36,4188.00,0.00,-1.56,0.00,4190.00,-0.19,0.06,0.00,
4196.00,0.02,-0.01,-0.38,4197.00,0.00,-1.56,0.00,4198.00,0.06,0.00,0.19,
4205.00,0.03,0.00,-0.37,4207.00,0.00,-1.56,0.00,4209.00,0.00,0.12,0.00,
4215.00,0.00,-0.03,-0.41,4217.00,0.00,-1.56,0.00,4219.00,0.00,-0.06,0.12,
4226.00,0.01,-0.01,-0.40,4228.00,0.00,-1.56,0.00,4230.00,-0.06,-0.06,0.00,
4236.00,0.00,-0.03,-0.39,4238.00,0.00,-1.56,0.00,4240.00,-0.12,-0.06,0.19,
4246.00,0.00,0.01,-0.38,4247.00,0.00,-1.56,0.00,4248.00,-0.06,-0.12,-0.06,
4254.00,0.01,0.00,-0.36,4255.00,0.00,-1.56,0.00,4257.00,-0.06,-0.06,-0.12,
4264.00,0.00,-0.02,-0.37,4265.00,0.00,-1.56,0.00,4268.00,-0.06,0.12,0.00,
4274.00,0.02,0.00,-0.39,4275.00,0.00,-1.56,0.00,4276.00,-0.06,0.00,0.12,
4282.00,0.00,-0.01,-0.36,4284.00,0.00,-1.56,0.00,4285.00,0.12,-0.19,0.12,
4290.00,0.00,-0.01,-0.36,4292.00,0.00,-1.56,0.00,4293.00,-0.19,0.12,0.06,
4298.00,0.02,0.00,-0.37,4300.00,0.00,-1.56,0.00,4302.00,-0.06,0.06,0.00,
4307.00,0.01,-0.02,-0.37,4310.00,0.00,-1.56,0.00,4312.00,0.00,0.12,-0.06,
4317.00,0.02,0.01,-0.40,4319.00,0.00,-1.56,0.00,4321.00,-0.06,0.00,-0.12,
4327.00,0.02,0.00,-0.39,4329.00,0.00,-1.56,0.00,4331.00,-0.06,0.00,-0.12,
4336.00,0.00,0.00,-0.38,4338.00,0.00,-1.56,0.00,4340.00,0.06,0.19,0.06,
4346.00,0.00,-0.04,-0.38,4347.00,0.00,-1.56,0.00,4348.00,0.00,-0.06,0.00,
4355.00,0.00,0.00,-0.34,4356.00,0.00,-1.56,0.00,4357.00,-0.06,0.00,-0.06,
4363.00,0.01,-0.02,-0.36,4365.00,0.00,-1.56,0.00,4366.00,0.06,0.06,0.12,
4372.00,0.01,0.00,-0.38,4373.00,0.00,-1.56,0.00,4374.00,-0.06,0.12,0.00,
4379.00,0.01,0.00,-0.38,4381.00,0.00,-1.56,0.00,4382.00,0.12,0.25,-0.06,
4387.00,0.00,-0.03,-0.38,4390.00,0.00,-1.56,0.00,4392.00,0.06,0.12,0.06,
4398.00,0.02,0.00,-0.35,4399.00,0.00,-1.56,0.00,4401.00,0.06,0.12,0.06,
4407.00,0.01,-0.02,-0.38,4409.00,0.00,-1.56,0.00,4411.00,0.06,0.06,0.00,
4417.00,0.03,-0.03,-0.37,4419.00,0.00,-1.56,0.00,4421.00,-0.06,0.06,0.00,
4427.00,0.04,0.00,-0.36,4429.00,0.00,-1.56,0.00,4431.00,0.12,0.12,0.06,
4436.00,0.00,-0.01,-0.39,4439.00,0.00,-1.56,0.00,4441.00,0.12,0.00,0.00,
4447.00,0.02,-0.02,-0.34,4448.00,0.00,-1.56,0.00,4449.00,0.00,-0.12,-0.06,
4456.00,0.00,0.00,-0.35,4458.00,0.00,-1.56,0.00,4460.00,0.06,0.00,-0.06,
4466.00,0.01,0.00,-0.39,4468.00,0.00,-1.56,0.00,4470.00,-0.06,0.06,0.00,
4476.00,0.02,0.00,-0.38,4478.00,0.00,-1.56,0.00,4481.00,0.06,0.12,-0.12,
4487.00,0.00,0.00,-0.36,4489.00,0.00,-1.56,0.00,4491.00,0.00,0.19,0.00,
4497.00,0.01,-0.02,-0.36,4498.00,0.00,-1.56,0.00,4499.00,0.00,0.19,-0.12,
4506.00,0.00,-0.01,-0.36,4507.00,0.00,-1.56,0.00,4509.00,-0.06,0.19,0.00,
4516.00,0.02,0.00,-0.37,4517.00,0.00,-1.56,0.00,4519.00,0.00,0.06,0.06,
4526.00,0.00,0.00,-0.39,4528.00,0.00,-1.56,0.00,4530.00,0.00,0.00,0.06,
4537.00,0.01,0.00,-0.36,4539.00,0.00,-1.56,0.00,4541.00,0.00,0.06,0.06,
4547.00,0.02,-0.02,-0.38,4548.00,0.00,-1.56,0.00,4549.00,0.12,0.06,0.12,
4555.00,0.01,-0.01,-0.38,4556.00,0.00,-1.56,0.00,4558.00,0.12,0.44,0.00,
4564.00,0.02,-0.02,-0.39,4566.00,0.00,-1.56,0.00,4567.00,0.06,0.06,-0.06,
4573.00,0.00,-0.01,-0.39,4574.00,0.00,-1.56,0.00,4575.00,0.00,0.12,-0.06,
4581.00,0.00,-0.01,-0.39,4583.00,0.00,-1.56,0.00,4584.00,-0.06,0.19,0.06,
4589.00,0.00,-0.02,-0.37,4591.00,0.00,-1.56,0.00,4593.00,0.00,0.37,-0.06,
4598.00,0.00,0.01,-0.38,4599.00,0.00,-1.56,0.00,4601.00,0.00,0.37,-0.06,
4608.00,0.00,-0.01,-0.37,4610.00,0.00,-1.56,0.00,4612.00,0.19,0.06,0.00,
4618.00,0.02,0.00,-0.35,4620.00,0.00,-1.56,0.00,4622.00,0.06,0.19,0.00,
4628.00,0.01,-0.02,-0.36,4630.00,0.00,-1.56,0.00,4632.00,0.00,-0.06,0.00,
4637.00,0.00,-0.01,-0.40,4640.00,0.00,-1.56,0.00,4642.00,0.00,-0.12,0.12,
4648.00,0.01,-0.01,-0.37,4649.00,0.00,-1.56,0.00,4651.00,0.00,0.12,-0.06,
4657.00,0.01,-0.01,-0.33,4659.00,0.00,-1.56,0.00,4661.00,-0.12,0.25,0.06,
4667.00,0.00,0.00,-0.37,4669.00,0.00,-1.56,0.00,4671.00,-0.06,0.12,-0.12,
4677.00,0.01,0.00,-0.40,4679.00,0.00,-1.56,0.00,4681.00,0.06,-0.06,0.06,
4687.00,0.00,-0.02,-0.40,4689.00,0.00,-1.56,0.00,4691.00,0.06,0.06,-0.12,
4698.00,0.03,-0.02,-0.35,4699.00,0.00,-1.56,0.00,4701.00,-0.12,0.19,-0.12,
4707.00,0.00,-0.01,-0.37,4709.00,0.00,-1.56,0.00,4711.00,0.06,-0.06,0.12,
4717.00,0.01,-0.01,-0.39,4719.00,0.00,-1.56,0.00,4721.00,0.12,-0.06,-0.06,
4727.00,0.02,-0.01,-0.36,4730.00,0.00,-1.56,0.00,4732.00,0.00,0.19,0.00,
4738.00,0.01,0.00,-0.39,4740.00,0.00,-1.56,0.00,4742.00,0.06,0.06,0.06,
4748.00,0.00,0.00,-0.37,4749.00,0.00,-1.56,0.00,4750.00,0.00,0.19,0.06,
4757.00,0.03,-0.01,-0.37,4758.00,0.00,-1.56,0.00,4760.00,0.12,-0.06,0.00,
4766.00,0.02,-0.01,-0.34,4768.00,0.00,-1.56,0.00,4770.00,0.19,0.12,0.06,
4776.00,0.00,-0.02,-0.38,4779.00,0.00,-1.56,0.00,4781.00,0.06,0.06,-0.06,
4787.00,0.00,-0.02,-0.39,4788.00,0.00,-1.56,0.00,4790.00,0.06,0.31,-0.19,
4796.00,0.00,-0.01,-0.38,4797.00,0.00,-1.56,0.00,4798.00,0.12,0.06,0.06,
4804.00,0.00,-0.01,-0.38,4805.00,0.00,-1.56,0.00,4806.00,0.12,-0.06,0.00,
4811.00,0.00,-0.01,-0.38,4813.00,0.00,-1.56,0.00,4814.00,0.25,0.00,0.06,
4819.00,0.02,-0.01,-0.37,4822.00,0.00,-1.56,0.00,4824.00,0.00,0.00,0.06,
4829.00,0.01,-0.01,-0.37,4832.00,0.00,-1.56,0.00,4834.00,0.00,0.12,0.00,
4839.00,0.01,0.00,-0.36,4841.00,0.00,-1.56,0.00,4843.00,0.00,0.12,0.00,
4849.00,0.03,0.00,-0.38,4850.00,0.00,-1.56,0.00,4851.00,-0.06,0.12,-0.06,
4856.00,0.00,-0.01,-0.36,4858.00,0.00,-1.56,0.00,4860.00,0.12,-0.12,0.00,
4867.00,0.01,-0.03,-0.37,4868.00,0.00,-1.56,0.00,4870.00,0.12,-0.25,-0.06,
4876.00,0.01,0.00,-0.37,4877.00,0.00,-1.56,0.00,4878.00,0.12,-0.06,-0.06,
4885.00,0.00,-0.01,-0.36,4886.00,0.00,-1.56,0.00,4887.00,0.06,0.00,-0.06,
4892.00,0.00,-0.01,-0.36,4894.00,0.00,-1.56,0.00,4895.00,-0.06,0.06,0.12,
4900.00,0.01,0.00,-0.36,4902.00,0.00,-1.56,0.00,4904.00,-0.06,0.00,0.06,
4910.00,0.00,0.00,-0.38,4912.00,0.00,-1.56,0.00,4914.00,-0.06,0.19,0.00,
4919.00,0.01,-0.02,-0.38,4922.00,0.00,-1.56,0.00,4924.00,-0.06,0.19,0.00,
4929.00,0.02,0.00,-0.38,4931.00,0.00,-1.56,0.00,4933.00,0.00,0.06,-0.12,
4939.00,0.02,0.00,-0.36,4941.00,0.00,-1.56,0.00,4943.00,0.00,-0.06,0.06,
4950.00,0.01,-0.01,-0.36,4951.00,0.00,-1.56,0.00,4952.00,-0.12,0.19,-0.19,
4958.00,0.00,-0.02,-0.36,4960.00,0.00,-1.56,0.00,4962.00,0.00,0.00,0.12,
4968.00,0.00,-0.04,-0.38,4970.00,0.00,-1.56,0.00,4972.00,0.00,0.00,-0.12,
4979.00,0.01,0.00,-0.38,4981.00,0.00,-1.56,0.00,4983.00,0.00,-0.06,-0.12,
4989.00,0.02,0.00,-0.38,4992.00,0.00,-1.56,0.00,4994.00,0.06,0.06,-0.12,
5000.00,0.00,0.01,-0.36,5001.00,0.00,-1.56,0.00,5002.00,-0.06,0.00,-0.12,
5008.00,0.01,-0.03,-0.36,5010.00,0.00,-1.56,0.00,5012.00,-0.12,0.00,0.00,
5019.00,0.02,-0.02,-0.36,5021.00,0.00,-1.56,0.00,5023.00,0.06,0.00,0.00,
5029.00,0.03,-0.02,-0.39,5031.00,0.00,-1.56,0.00,5033.00,0.00,-0.12,0.12,
5040.00,0.02,-0.01,-0.35,5042.00,0.00,-1.56,0.00,5044.00,-0.06,0.06,-0.06,
5050.00,0.02,-0.02,-0.37,5051.00,0.00,-1.56,0.00,5052.00,-0.12,0.12,0.12,
5058.00,0.00,-0.02,-0.37,5060.00,0.00,-1.56,0.00,5062.00,0.00,0.00,-0.06,
5068.00,0.01,0.00,-0.39,5069.00,0.00,-1.56,0.00,5071.00,0.12,-0.06,-0.06,
5079.00,0.02,-0.03,-0.40,5080.00,0.00,-1.56,0.00,5082.00,0.06,0.06,-0.19,
5089.00,0.01,-0.01,-0.38,5090.00,0.00,-1.56,0.00,5092.00,-0.19,-0.06,0.12,
5099.00,0.01,0.00,-0.36,5100.00,0.00,-1.56,0.00,5101.00,-0.06,-0.06,0.19,
5106.00,0.00,0.00,-0.35,5107.00,0.00,-1.56,0.00,5108.00,-0.12,0.00,-0.06,
5114.00,0.00,0.00,-0.38,5115.00,0.00,-1.56,0.00,5116.00,0.06,-0.12,0.00,
5123.00,0.00,0.00,-0.38,5125.00,0.00,-1.56,0.00,5126.00,0.00,-0.12,-0.25,
5131.00,0.03,-0.02,-0.40,5133.00,0.00,-1.56,0.00,5135.00,-0.25,0.06,0.00,
5140.00,0.03,-0.01,-0.40,5143.00,0.00,-1.56,0.00,5145.00,0.12,-0.06,0.12,
5150.00,0.02,-0.02,-0.38,5151.00,0.00,-1.56,0.00,5152.00,0.12,-0.06,0.12,
5158.00,0.01,-0.01,-0.39,5161.00,0.00,-1.56,0.00,5164.00,-0.06,-0.06,0.12,
5170.00,0.01,-0.02,-0.36,5172.00,0.00,-1.56,0.00,5174.00,-0.12,0.00,0.00,
5180.00,0.00,0.00,-0.38,5182.00,0.00,-1.56,0.00,5184.00,0.06,0.00,0.25,
5190.00,0.02,-0.01,-0.37,5192.00,0.00,-1.56,0.00,5194.00,0.06,0.12,0.00,
5200.00,0.02,0.00,-0.37,5201.00,0.00,-1.56,0.00,5202.00,-0.06,0.00,0.12,
5209.00,0.02,0.00,-0.37,5211.00,0.00,-1.56,0.00,5213.00,-0.12,-0.06,0.06,
5219.00,0.03,-0.02,-0.37,5221.00,0.00,-1.56,0.00,5223.00,0.06,-0.12,-0.06,
5230.00,0.02,-0.01,-0.37,5232.00,0.00,-1.56,0.00,5234.00,0.00,0.00,0.19,
5240.00,0.02,-0.01,-0.37,5242.00,0.00,-1.56,0.00,5244.00,0.00,-0.12,0.00,
5251.00,0.03,0.00,-0.40,5252.00,0.00,-1.56,0.00,5253.00,0.06,-0.06,0.06,
5259.00,0.02,0.00,-0.35,5260.00,0.00,-1.56,0.00,5262.00,-0.06,-0.06,-0.06,
5268.00,0.00,0.00,-0.37,5269.00,0.00,-1.56,0.00,5271.00,-0.06,0.12,0.25,
5277.00,0.01,-0.02,-0.40,5278.00,0.00,-1.56,0.00,5279.00,0.12,0.00,-0.06,
5285.00,0.00,-0.01,-0.38,5286.00,0.00,-1.56,0.00,5287.00,-0.06,0.00,0.06,
5294.00,0.00,-0.01,-0.38,5296.00,0.00,-1.56,0.00,5297.00,-0.19,-0.31,0.06,
5302.00,0.02,0.00,-0.36,5304.00,0.00,-1.56,0.00,5306.00,0.00,-0.25,-0.06,
5311.00,0.03,-0.02,-0.35,5313.00,0.00,-1.56,0.00,5315.00,-0.06,-0.06,-0.06,
5321.00,0.00,0.00,-0.38,5323.00,0.00,-1.56,0.00,5325.00,-0.06,-0.06,-0.06,
5330.00,0.03,0.00,-0.40,5332.00,0.00,-1.56,0.00,5335.00,-0.19,0.06,-0.06,
5341.00,0.03,0.00,-0.39,5343.00,0.00,-1.56,0.00,5345.00,-0.06,0.19,0.06,
5351.00,0.01,0.00,-0.37,5352.00,0.00,-1.56,0.00,5353.00,-0.19,0.06,-0.06,
5358.00,0.02,-0.01,-0.36,5360.00,0.00,-1.56,0.00,5361.00,0.00,0.12,0.00,
5368.00,0.02,-0.01,-0.37,5369.00,0.00,-1.56,0.00,5370.00,-0.06,0.19,0.06,
5377.00,0.01,-0.02,-0.41,5378.00,0.00,-1.56,0.00,5379.00,0.12,-0.12,-0.12,
5384.00,0.01,-0.02,-0.41,5387.00,0.00,-1.56,0.00,5388.00,0.12,-0.12,0.12,
5393.00,0.02,0.00,-0.40,5395.00,0.00,-1.56,0.00,5397.00,0.06,-0.12,0.06,
5402.00,0.01,0.00,-0.38,5403.00,0.00,-1.56,0.00,5405.00,0.06,-0.12,0.06,
5411.00,0.02,0.01,-0.39,5413.00,0.00,-1.56,0.00,5415.00,0.06,-0.12,-0.12,
5422.00,0.00,0.00,-0.36,5424.00,0.00,-1.56,0.00,5426.00,0.06,-0.06,-0.06,
5431.00,0.02,-0.03,-0.42,5433.00,0.00,-1.56,0.00,5435.00,0.06,-0.06,0.06,
5441.00,0.01,0.01,-0.40,5443.00,0.00,-1.56,0.00,5445.00,0.19,-0.12,0.00,
5451.00,0.02,0.00,-0.35,5452.00,0.00,-1.56,0.00,5453.00,0.12,0.19,0.19,
5460.00,0.00,-0.01,-0.36,5463.00,0.00,-1.56,0.00,5465.00,-0.06,0.19,0.00,
5471.00,0.01,-0.01,-0.39,5473.00,0.00,-1.56,0.00,5475.00,0.06,-0.06,-0.19,
5481.00,0.00,-0.01,-0.38,5483.00,0.00,-1.56,0.00,5485.00,0.06,-0.06,0.00,
5491.00,0.00,-0.01,-0.36,5493.00,0.00,-1.56,0.00,5495.00,0.00,0.06,-0.06,
5501.00,0.00,0.00,-0.38,5502.00,0.00,-1.56,0.00,5504.00,0.12,-0.19,0.06,
5510.00,0.01,0.00,-0.36,5512.00,0.00,-1.56,0.00,5514.00,-0.06,0.00,-0.06,
5520.00,0.03,-0.01,-0.36,5522.00,0.00,-1.56,0.00,5524.00,-0.06,0.19,0.00,
5530.00,0.02,0.00,-0.39,5532.00,0.00,-1.56,0.00,5534.00,0.00,0.12,0.00,
5541.00,0.01,0.00,-0.38,5543.00,0.00,-1.56,0.00,5545.00,-0.12,0.00,0.12,
5552.00,0.00,0.00,-0.37,5553.00,0.00,-1.56,0.00,5554.00,0.00,0.06,-0.06,
5560.00,0.00,-0.02,-0.38,5561.00,0.00,-1.56,0.00,5563.00,0.12,0.00,-0.06,
5569.00,0.02,-0.01,-0.38,5570.00,0.00,-1.56,0.00,5571.00,0.00,0.12,0.06,
5577.00,0.02,0.00,-0.37,5578.00,0.00,-1.56,0.00,5579.00,-0.12,0.06,-0.12,
5585.00,0.02,0.00,-0.37,5587.00,0.00,-1.56,0.00,5588.00,0.19,0.06,-0.12,
5594.00,0.00,0.00,-0.36,5596.00,0.00,-1.56,0.00,5598.00,0.06,0.00,0.00,
5603.00,0.00,-0.02,-0.36,5604.00,0.00,-1.56,0.00,5606.00,0.06,0.00,0.00,
5612.00,0.01,-0.02,-0.36,5614.00,0.00,-1.56,0.00,5616.00,0.00,0.06,-0.06,
5622.00,0.01,0.00,-0.35,5624.00,0.00,-1.56,0.00,5626.00,0.19,0.06,0.00,
5632.00,0.02,-0.01,-0.39,5635.00,0.00,-1.56,0.00,5637.00,0.06,0.00,0.00,
5642.00,0.01,-0.03,-0.37,5644.00,0.00,-1.56,0.00,5646.00,0.06,-0.06,0.00,
5652.00,0.03,0.00,-0.37,5653.00,0.00,-1.56,0.00,5654.00,0.00,-0.06,-0.06,
5660.00,0.01,-0.02,-0.38,5662.00,0.00,-1.56,0.00,5664.00,0.00,0.06,-0.06,
5670.00,0.01,-0.01,-0.37,5672.00,0.00,-1.56,0.00,5675.00,0.06,-0.06,0.00,
5681.00,0.02,-0.01,-0.37,5682.00,0.00,-1.56,0.00,5684.00,0.06,0.06,0.00,
5690.00,0.01,-0.01,-0.38,5691.00,0.00,-1.56,0.00,5693.00,-0.12,0.00,0.00,
5699.00,0.03,-0.01,-0.37,5700.00,0.00,-1.56,0.00,5701.00,0.19,0.12,-0.12,
5707.00,0.00,-0.01,-0.37,5708.00,0.00,-1.56,0.00,5709.00,0.00,0.06,0.00,
5714.00,0.00,-0.01,-0.37,5716.00,0.00,-1.56,0.00,5719.00,-0.12,0.06,0.06,
5724.00,0.00,-0.03,-0.37,5726.00,0.00,-1.56,0.00,5728.00,0.00,-0.19,0.06,
5733.00,0.01,0.00,-0.38,5735.00,0.00,-1.56,0.00,5737.00,0.12,-0.06,0.06,
5743.00,0.01,-0.03,-0.36,5745.00,0.00,-1.56,0.00,5747.00,0.12,-0.06,0.06,
5752.00,0.01,-0.01,-0.37,5753.00,0.00,-1.56,0.00,5754.00,-0.06,-0.19,0.00,
5762.00,0.00,0.00,-0.39,5763.00,0.00,-1.56,0.00,5765.00,-0.06,0.00,-0.06,
5772.00,0.00,-0.01,-0.37,5773.00,0.00,-1.56,0.00,5775.00,0.00,0.00,0.00,
5782.00,0.01,-0.01,-0.38,5784.00,0.00,-1.56,0.00,5786.00,0.00,-0.12,0.12,
5792.00,0.01,0.00,-0.39,5794.00,0.00,-1.56,0.00,5796.00,-0.06,0.00,0.00,
5803.00,0.00,-0.02,-0.39,5804.00,0.00,-1.56,0.00,5806.00,-0.12,0.00,-0.12,
5812.00,0.02,0.00,-0.35,5814.00,0.00,-1.56,0.00,5816.00,0.06,-0.06,0.00,
5822.00,0.00,-0.02,-0.37,5824.00,0.00,-1.56,0.00,5826.00,0.12,0.00,0.00,
5832.00,0.03,-0.02,-0.38,5834.00,0.00,-1.56,0.00,5836.00,0.12,0.00,-0.06,
5842.00,0.00,-0.02,-0.36,5844.00,0.00,-1.56,0.00,5847.00,0.06,0.00,-0.06,
5853.00,0.00,-0.02,-0.36,5854.00,0.00,-1.56,0.00,5855.00,0.12,0.00,0.00,
5860.00,0.00,-0.01,-0.38,5862.00,0.00,-1.56,0.00,5863.00,0.00,0.12,0.06,
5869.00,0.01,-0.01,-0.36,5870.00,0.00,-1.56,0.00,5871.00,0.12,0.12,-0.06,
5877.00,0.01,-0.01,-0.36,5879.00,0.00,-1.56,0.00,5880.00,0.06,-0.12,-0.06,
5885.00,0.00,0.00,-0.38,5888.00,0.00,-1.56,0.00,5889.00,0.06,0.19,-0.25,
5895.00,0.01,0.00,-0.40,5897.00,0.00,-1.56,0.00,5899.00,-0.06,-0.12,0.06,
5904.00,0.00,-0.02,-0.36,5905.00,0.00,-1.56,0.00,5907.00,-0.06,-0.12,0.06,
5913.00,0.02,0.00,-0.36,5915.00,0.00,-1.56,0.00,5917.00,0.00,-0.12,-0.06,
5923.00,0.00,-0.01,-0.39,5925.00,0.00,-1.56,0.00,5927.00,0.06,0.00,-0.06,
5934.00,0.00,-0.01,-0.38,5936.00,0.00,-1.56,0.00,5938.00,0.06,-0.12,-0.06,
5943.00,0.00,-0.02,-0.36,5945.00,0.00,-1.56,0.00,5947.00,0.12,-0.06,0.06,
5953.00,0.02,-0.01,-0.36,5955.00,0.00,-1.56,0.00,5956.00,0.06,-0.06,0.00,
5962.00,0.01,-0.02,-0.36,5963.00,0.00,-1.56,0.00,5965.00,-0.06,0.00,0.06,
5971.00,0.01,0.00,-0.38,5974.00,0.00,-1.56,0.00,5976.00,0.06,-0.06,0.00,
5982.00,0.01,0.00,-0.37,5984.00,0.00,-1.56,0.00,5986.00,0.12,0.00,0.06,
5992.00,-0.01,0.00,-0.36,5995.00,0.00,-1.56,0.00,5997.00,0.12,-0.06,0.12,
6003.00,0.02,-0.01,-0.38,6004.00,0.00,-1.56,0.00,6005.00,0.06,0.06,0.12,
6011.00,0.01,-0.01,-0.36,6013.00,0.00,-1.56,0.00,6016.00,0.00,0.12,-0.06,
6022.00,0.01,0.00,-0.38,6023.00,0.00,-1.56,0.00,6025.00,0.00,-0.06,-0.06,
6031.00,0.00,-0.01,-0.38,6032.00,0.00,-1.56,0.00,6033.00,0.06,0.12,0.00,
6039.00,0.02,-0.01,-0.40,6040.00,0.00,-1.56,0.00,6041.00,0.06,0.37,0.12,
6047.00,0.02,-0.01,-0.40,6049.00,0.00,-1.56,0.00,6050.00,0.12,0.00,-0.12,
6055.00,0.00,-0.01,-0.36,6056.00,0.00,-1.56,0.00,6059.00,-0.12,0.19,-0.19,
6065.00,0.01,0.00,-0.40,6067.00,0.00,-1.56,0.00,6069.00,0.06,-0.06,0.00,
6074.00,0.02,0.00,-0.39,6076.00,0.00,-1.56,0.00,6078.00,0.06,-0.06,0.00,
6084.00,0.01,0.00,-0.39,6086.00,0.00,-1.56,0.00,6088.00,0.00,0.00,-0.06,
6094.00,0.00,-0.01,-0.38,6096.00,0.00,-1.56,0.00,6098.00,0.12,-0.06,0.19,
6105.00,0.00,-0.03,-0.36,6106.00,0.00,-1.56,0.00,6107.00,0.00,-0.06,0.06,
6113.00,0.02,0.00,-0.37,6115.00,0.00,-1.56,0.00,6117.00,-0.06,0.00,-0.12,
6124.00,0.01,-0.01,-0.37,6126.00,0.00,-1.56,0.00,6128.00,0.06,-0.06,-0.12,
6134.00,0.01,0.00,-0.39,6136.00,0.00,-1.56,0.00,6138.00,0.00,0.06,0.12,
6144.00,0.00,0.00,-0.38,6146.00,0.00,-1.56,0.00,6149.00,-0.06,0.00,0.06,
6154.00,0.02,0.00,-0.36,6155.00,0.00,-1.56,0.00,6157.00,-0.12,0.06,0.06,
6162.00,0.01,0.01,-0.38,6164.00,0.00,-1.56,0.00,6166.00,0.12,0.00,-0.12,
6172.00,0.00,-0.01,-0.35,6173.00,0.00,-1.56,0.00,6175.00,0.19,-0.06,0.00,
6181.00,0.02,-0.02,-0.40,6182.00,0.00,-1.56,0.00,6184.00,0.00,-0.06,0.00,
6191.00,0.01,-0.02,-0.35,6192.00,0.00,-1.56,0.00,6193.00,-0.06,0.19,-0.06,
6199.00,0.01,-0.02,-0.35,6200.00,0.00,-1.56,0.00,6201.00,-0.06,0.06,0.06,
6207.00,0.01,0.00,-0.36,6209.00,0.00,-1.56,0.00,6210.00,0.06,-0.06,-0.06,
6215.00,0.01,0.00,-0.38,6217.00,0.00,-1.56,0.00,6219.00,0.00,0.12,0.06,
6225.00,0.02,-0.01,-0.37,6227.00,0.00,-1.56,0.00,6230.00,0.06,-0.12,0.00,
6235.00,0.00,-0.01,-0.41,6237.00,0.00,-1.56,0.00,6239.00,0.06,-0.12,0.00,
6245.00,0.01,0.00,-0.38,6247.00,0.00,-1.56,0.00,6249.00,0.00,0.00,-0.06,
6255.00,0.02,-0.01,-0.37,6256.00,0.00,-1.56,0.00,6257.00,0.12,0.00,0.12,
6263.00,0.00,-0.02,-0.37,6265.00,0.00,-1.56,0.00,6267.00,0.19,-0.06,0.00,
6274.00,0.00,0.00,-0.36,6277.00,0.00,-1.56,0.00,6279.00,0.12,0.06,0.12,
6285.00,0.00,0.00,-0.36,6287.00,0.00,-1.56,0.00,6289.00,0.00,0.19,-0.19,
6294.00,0.00,-0.01,-0.38,6297.00,0.00,-1.56,0.00,6299.00,0.06,-0.06,-0.06,
6305.00,0.00,-0.04,-0.33,6306.00,0.00,-1.56,0.00,6307.00,-0.06,0.12,-0.06,
6313.00,0.03,0.02,-0.39,6316.00,0.00,-1.56,0.00,6318.00,0.06,-0.06,0.06,
6324.00,0.01,0.00,-0.39,6326.00,0.00,-1.56,0.00,6328.00,0.00,0.06,0.06,
6334.00,0.01,0.00,-0.37,6337.00,0.00,-1.56,0.00,6339.00,-0.12,0.31,0.12,
6345.00,0.02,-0.02,-0.36,6347.00,0.00,-1.56,0.00,6349.00,0.00,0.00,-0.06,
6355.00,0.00,0.00,-0.37,6356.00,0.00,-1.56,0.00,6358.00,0.12,0.06,-0.06,
6363.00,0.02,-0.01,-0.36,6364.00,0.00,-1.56,0.00,6366.00,0.06,0.06,0.25,
6372.00,0.01,0.00,-0.37,6373.00,0.00,-1.56,0.00,6374.00,0.25,-0.19,0.06,
6380.00,0.00,-0.04,-0.39,6382.00,0.00,-1.56,0.00,6383.00,0.00,-0.06,-0.06,
6388.00,0.00,-0.04,-0.39,6390.00,0.00,-1.56,0.00,6391.00,0.00,0.06,0.00,
6396.00,0.01,-0.02,-0.35,6398.00,0.00,-1.56,0.00,6401.00,0.19,-0.06,0.00,
6406.00,0.01,-0.01,-0.35,6407.00,0.00,-1.56,0.00,6409.00,0.19,-0.06,0.00,
6415.00,0.01,-0.01,-0.35,6417.00,0.00,-1.56,0.00,6419.00,0.12,0.00,-0.06,
6425.00,0.03,0.00,-0.37,6427.00,0.00,-1.56,0.00,6429.00,-0.12,0.00,-0.06,
6435.00,0.00,-0.02,-0.38,6437.00,0.00,-1.56,0.00,6439.00,-0.06,0.19,0.00,
6446.00,0.03,-0.02,-0.38,6448.00,0.00,-1.56,0.00,6450.00,0.06,0.12,-0.12,
6456.00,0.03,-0.01,-0.37,6457.00,0.00,-1.56,0.00,6458.00,0.12,0.00,-0.06,
6464.00,0.00,-0.02,-0.37,6466.00,0.00,-1.56,0.00,6468.00,-0.06,-0.19,0.06,
6474.00,0.00,0.00,-0.37,6476.00,0.00,-1.56,0.00,6478.00,0.06,0.00,0.00,
6484.00,0.01,0.00,-0.40,6487.00,0.00,-1.56,0.00,6490.00,0.00,0.19,0.12,
6496.00,0.02,-0.01,-0.36,6498.00,0.00,-1.56,0.00,6500.00,0.06,-0.06,0.00,
6506.00,0.00,-0.02,-0.39,6507.00,0.00,-1.56,0.00,6508.00,0.06,-0.19,-0.12,
6514.00,0.01,-0.04,-0.36,6516.00,0.00,-1.56,0.00,6518.00,0.12,-0.12,0.06,
6524.00,0.00,-0.01,-0.36,6526.00,0.00,-1.56,0.00,6529.00,0.19,-0.31,0.00,
6536.00,0.03,-0.02,-0.36,6538.00,0.00,-1.56,0.00,6540.00,0.00,-0.06,0.00,
6546.00,0.00,-0.02,-0.38,6548.00,0.00,-1.56,0.00,6550.00,-0.06,-0.12,-0.06,
6556.00,0.00,0.00,-0.38,6557.00,0.00,-1.56,0.00,6558.00,0.06,0.00,0.00,
6564.00,0.01,-0.03,-0.37,6565.00,0.00,-1.56,0.00,6567.00,-0.12,-0.06,-0.06,
6574.00,0.00,-0.01,-0.34,6575.00,0.00,-1.56,0.00,6577.00,0.06,-0.06,0.00,
6584.00,0.02,-0.01,-0.38,6585.00,0.00,-1.56,0.00,6587.00,0.12,-0.06,-0.12,
6593.00,0.00,0.00,-0.35,6594.00,0.00,-1.56,0.00,6595.00,0.12,0.00,0.00,
6601.00,0.02,0.00,-0.38,6602.00,0.00,-1.56,0.00,6603.00,0.06,0.00,0.00,
6608.00,0.02,0.00,-0.38,6610.00,0.00,-1.56,0.00,6612.00,-0.06,-0.06,0.12,
6618.00,0.02,-0.03,-0.35,6620.00,0.00,-1.56,0.00,6622.00,0.06,-0.06,0.00,
6627.00,0.01,0.00,-0.36,6629.00,0.00,-1.56,0.00,6631.00,0.06,-0.12,0.06,
6636.00,0.01,-0.01,-0.36,6639.00,0.00,-1.56,0.00,6641.00,0.06,-0.12,0.06,
6646.00,0.02,0.00,-0.35,6648.00,0.00,-1.56,0.00,6650.00,0.12,-0.19,-0.06,
6657.00,0.00,-0.02,-0.37,6658.00,0.00,-1.56,0.00,6659.00,-0.06,-0.12,-0.06,
6665.00,0.01,-0.02,-0.36,6668.00,0.00,-1.56,0.00,6670.00,0.06,0.12,-0.06,
6676.00,0.01,-0.01,-0.36,6678.00,0.00,-1.56,0.00,6680.00,0.06,-0.06,-0.06,
6686.00,0.00,0.00,-0.38,6688.00,0.00,-1.56,0.00,6690.00,0.00,-0.12,0.06,
6696.00,0.02,-0.01,-0.37,6699.00,0.00,-1.56,0.00,6701.00,-0.06,-0.06,0.06,
6707.00,0.01,0.00,-0.37,6708.00,0.00,-1.56,0.00,6709.00,0.00,-0.31,0.00,
6715.00,0.00,-0.02,-0.36,6717.00,0.00,-1.56,0.00,6719.00,-0.12,0.06,0.00,
6725.00,0.01,0.00,-0.36,6727.00,0.00,-1.56,0.00,6729.00,0.12,0.19,0.06,
6735.00,0.02,0.00,-0.38,6737.00,0.00,-1.56,0.00,6739.00,0.19,0.06,0.06,
6746.00,0.00,-0.01,-0.36,6748.00,0.00,-1.56,0.00,6750.00,-0.12,0.06,-0.06,
6756.00,0.00,0.00,-0.36,6757.00,0.00,-1.56,0.00,6758.00,-0.06,-0.06,0.00,
6763.00,0.02,-0.01,-0.37,6764.00,0.00,-1.56,0.00,6765.00,0.25,-0.06,0.12,
6771.00,0.02,-0.01,-0.38,6773.00,0.00,-1.56,0.00,6774.00,0.00,-0.25,0.00,
6779.00,0.02,-0.01,-0.38,6781.00,0.00,-1.56,0.00,6782.00,-0.06,-0.19,0.12,
6788.00,0.00,0.00,-0.40,6790.00,0.00,-1.56,0.00,6792.00,-0.12,-0.06,0.25,
6798.00,0.01,-0.02,-0.39,6800.00,0.00,-1.56,0.00,6802.00,0.00,-0.06,0.00,
6807.00,0.01,0.00,-0.38,6808.00,0.00,-1.56,0.00,6810.00,0.00,-0.06,0.00,
6816.00,0.01,-0.01,-0.38,6818.00,0.00,-1.56,0.00,6820.00,0.12,-0.12,0.00,
6827.00,0.01,0.00,-0.37,6829.00,0.00,-1.56,0.00,6831.00,0.00,0.00,-0.12,
6837.00,0.00,0.00,-0.37,6839.00,0.00,-1.56,0.00,6841.00,0.12,-0.19,0.00,
6847.00,0.02,-0.02,-0.37,6849.00,0.00,-1.56,0.00,6851.00,0.00,0.00,-0.06,
6857.00,0.01,-0.02,-0.35,6858.00,0.00,-1.56,0.00,6859.00,0.00,0.06,0.06,
6864.00,0.00,0.00,-0.36,6865.00,0.00,-1.56,0.00,6867.00,0.19,-0.12,0.19,
6874.00,0.01,0.00,-0.37,6875.00,0.00,-1.56,0.00,6876.00,0.19,-0.25,0.00,
6882.00,0.01,0.00,-0.37,6883.00,0.00,-1.56,0.00,6884.00,0.06,0.00,0.19,
6889.00,0.01,0.00,-0.38,6891.00,0.00,-1.56,0.00,6893.00,0.06,-0.06,0.00,
6898.00,0.02,0.01,-0.36,6900.00,0.00,-1.56,0.00,6902.00,0.00,0.00,0.06,
6908.00,0.00,0.00,-0.38,6909.00,0.00,-1.56,0.00,6912.00,0.00,0.00,0.06,
6918.00,0.00,0.00,-0.37,6920.00,0.00,-1.56,0.00,6921.00,-0.06,0.06,0.00,
6927.00,0.00,-0.01,-0.36,6929.00,0.00,-1.56,0.00,6931.00,0.00,0.00,0.00,
6937.00,-0.02,0.00,-0.36,6939.00,0.00,-1.56,0.00,6941.00,-0.06,0.00,0.00,
6947.00,0.02,-0.03,-0.36,6949.00,0.00,-1.56,0.00,6951.00,0.06,0.06,0.12,
6958.00,0.01,0.00,-0.39,6959.00,0.00,-1.56,0.00,6960.00,0.06,0.12,0.06,
6966.00,0.01,-0.01,-0.37,6968.00,0.00,-1.56,0.00,6970.00,0.06,-0.12,0.06,
6976.00,0.01,-0.02,-0.36,6978.00,0.00,-1.56,0.00,6980.00,-0.06,0.00,-0.12,
6987.00,0.01,-0.02,-0.39,6989.00,0.00,-1.56,0.00,6991.00,0.00,0.06,-0.12,
6998.00,0.02,-0.01,-0.38,7000.00,0.00,-1.56,0.00,7002.00,0.00,0.00,0.00,
7008.00,0.02,-0.01,-0.37,7009.00,0.00,-1.56,0.00,7010.00,0.19,0.12,-0.12,
7016.00,0.00,0.01,-0.39,7018.00,0.00,-1.56,0.00,7020.00,-0.06,0.06,0.00,
7027.00,0.01,0.00,-0.38,7029.00,0.00,-1.56,0.00,7031.00,0.12,-0.19,-0.06,
7037.00,0.00,0.00,-0.37,7040.00,0.00,-1.56,0.00,7042.00,0.00,0.06,-0.06,
7048.00,0.00,-0.03,-0.36,7050.00,0.00,-1.56,0.00,7052.00,0.00,0.00,-0.12,
7058.00,0.01,-0.02,-0.36,7059.00,0.00,-1.56,0.00,7060.00,-0.06,0.00,0.12,
7066.00,0.01,0.00,-0.36,7067.00,0.00,-1.56,0.00,7069.00,0.06,-0.06,0.12,
7075.00,0.00,-0.01,-0.36,7076.00,0.00,-1.56,0.00,7078.00,0.06,-0.06,0.12,
7085.00,0.00,0.00,-0.39,7086.00,0.00,-1.56,0.00,7087.00,0.31,-0.06,0.00,
7093.00,0.01,0.00,-0.33,7094.00,0.00,-1.56,0.00,7095.00,0.06,-0.19,0.00,
7101.00,0.01,0.00,-0.33,7103.00,0.00,-1.56,0.00,7104.00,-0.06,0.00,0.06,
7109.00,0.00,-0.03,-0.38,7111.00,0.00,-1.56,0.00,7113.00,-0.06,-0.19,-0.19,
7118.00,0.01,0.00,-0.37,7120.00,0.00,-1.56,0.00,7122.00,-0.06,-0.19,-0.19,
7129.00,0.00,-0.02,-0.37,7131.00,0.00,-1.56,0.00,7133.00,-0.06,-0.19,-0.19,
7139.00,0.00,0.00,-0.39,7141.00,0.00,-1.56,0.00,7143.00,0.00,-0.19,0.00,
7148.00,0.01,-0.01,-0.37,7150.00,0.00,-1.56,0.00,7152.00,0.19,0.00,-0.06,
7158.00,0.00,-0.01,-0.36,7159.00,0.00,-1.56,0.00,7160.00,0.00,0.06,-0.06,
7166.00,0.00,-0.03,-0.35,7169.00,0.00,-1.56,0.00,7171.00,-0.06,0.12,0.00,
7177.00,0.02,0.00,-0.38,7178.00,0.00,-1.56,0.00,7180.00,-0.06,0.12,0.00,
7186.00,0.02,-0.01,-0.38,7187.00,0.00,-1.56,0.00,7189.00,0.06,0.00,-0.12,
7195.00,0.01,-0.01,-0.35,7196.00,0.00,-1.56,0.00,7197.00,0.12,-0.19,0.12,
7204.00,0.02,-0.01,-0.36,7205.00,0.00,-1.56,0.00,7206.00,-0.06,-0.37,0.12,
7212.00,0.02,-0.01,-0.36,7214.00,0.00,-1.56,0.00,7215.00,-0.12,0.06,0.06,
7220.00,0.00,0.00,-0.36,7222.00,0.00,-1.56,0.00,7224.00,0.00,0.06,-0.06,
7229.00,0.01,-0.01,-0.39,7231.00,0.00,-1.56,0.00,7233.00,0.00,0.06,-0.06,
7239.00,0.01,-0.01,-0.40,7241.00,0.00,-1.56,0.00,7243.00,0.00,0.06,-0.06,
7248.00,0.00,0.00,-0.37,7251.00,0.00,-1.56,0.00,7254.00,0.00,-0.19,-0.06,
7259.00,0.01,-0.02,-0.38,7261.00,0.00,-1.56,0.00,7262.00,0.06,0.06,0.12,
7268.00,0.01,-0.01,-0.39,7270.00,0.00,-1.56,0.00,7272.00,-0.06,-0.06,0.00,
7278.00,0.01,-0.02,-0.36,7280.00,0.00,-1.56,0.00,7282.00,-0.06,-0.12,0.00,
7288.00,0.00,-0.03,-0.36,7290.00,0.00,-1.56,0.00,7292.00,0.06,-0.12,0.00,
7299.00,0.00,0.00,-0.37,7301.00,0.00,-1.56,0.00,7303.00,-0.06,-0.06,-0.06,
7309.00,0.01,0.00,-0.36,7310.00,0.00,-1.56,0.00,7312.00,0.12,-0.19,0.00,
7318.00,0.00,0.00,-0.36,7320.00,0.00,-1.56,0.00,7322.00,0.00,0.12,0.00,
7328.00,0.02,0.00,-0.43,7330.00,0.00,-1.56,0.00,7332.00,0.06,0.06,0.00,
7339.00,0.01,0.00,-0.39,7341.00,0.00,-1.56,0.00,7343.00,0.06,-0.12,-0.25,
7349.00,0.01,0.00,-0.37,7351.00,0.00,-1.56,0.00,7353.00,-0.06,0.00,-0.06,
7359.00,0.02,0.00,-0.39,7360.00,0.00,-1.56,0.00,7361.00,0.06,0.00,0.12,
7367.00,0.01,0.00,-0.36,7368.00,0.00,-1.56,0.00,7369.00,0.00,0.00,0.00,
7375.00,0.01,0.00,-0.39,7376.00,0.00,-1.56,0.00,7377.00,-0.06,0.00,0.25,
7384.00,0.01,0.00,-0.39,7386.00,0.00,-1.56,0.00,7387.00,0.06,0.00,0.06,
7392.00,0.02,0.00,-0.41,7394.00,0.00,-1.56,0.00,7395.00,0.06,0.31,0.00,
7401.00,-0.01,-0.02,-0.36,7403.00,0.00,-1.56,0.00,7405.00,0.06,0.12,0.00,
7410.00,0.01,-0.01,-0.37,7411.00,0.00,-1.56,0.00,7413.00,0.06,0.12,0.00,
7419.00,0.02,-0.01,-0.38,7421.00,0.00,-1.56,0.00,7424.00,0.06,0.06,0.06,
7430.00,0.01,0.00,-0.36,7432.00,0.00,-1.56,0.00,7434.00,0.06,0.06,0.06,
7440.00,0.01,0.00,-0.37,7442.00,0.00,-1.56,0.00,7444.00,0.06,0.00,-0.12,
7449.00,0.00,0.00,-0.38,7452.00,0.00,-1.56,0.00,7454.00,-0.06,0.00,0.06,
7459.00,0.01,0.00,-0.39,7461.00,0.00,-1.56,0.00,7462.00,-0.06,-0.06,0.06,
7469.00,0.01,0.00,-0.37,7470.00,0.00,-1.56,0.00,7472.00,0.00,-0.06,0.06,
7478.00,0.00,0.00,-0.38,7480.00,0.00,-1.56,0.00,7482.00,0.06,-0.06,0.00,
7488.00,0.02,0.00,-0.40,7490.00,0.00,-1.56,0.00,7492.00,-0.12,0.19,0.00,
7498.00,0.04,0.00,-0.37,7500.00,0.00,-1.56,0.00,7502.00,0.19,0.06,-0.12,
7508.00,0.00,0.00,-0.37,7510.00,0.00,-1.56,0.00,7511.00,0.12,0.00,0.06,
7516.00,0.01,0.00,-0.37,7517.00,0.00,-1.56,0.00,7518.00,0.00,0.12,0.00,
7523.00,0.01,0.00,-0.37,7525.00,0.00,-1.56,0.00,7526.00,-0.06,0.19,0.06,
7532.00,0.01,0.00,-0.36,7534.00,0.00,-1.56,0.00,7535.00,0.06,-0.06,-0.12,
7541.00,0.00,-0.01,-0.38,7543.00,0.00,-1.56,0.00,7545.00,0.00,0.12,0.00,
7550.00,0.01,-0.01,-0.36,7553.00,0.00,-1.56,0.00,7555.00,0.00,0.12,0.00,
7561.00,0.00,-0.01,-0.38,7562.00,0.00,-1.56,0.00,7563.00,0.06,0.19,-0.06,
7569.00,0.00,0.01,-0.35,7571.00,0.00,-1.56,0.00,7573.00,0.00,-0.06,0.00,
7579.00,0.01,-0.02,-0.36,7581.00,0.00,-1.56,0.00,7583.00,0.06,0.12,0.00,
7589.00,0.01,-0.02,-0.39,7591.00,0.00,-1.56,0.00,7593.00,0.00,-0.12,-0.06,
7600.00,0.01,-0.02,-0.39,7602.00,0.00,-1.56,0.00,7604.00,0.06,-0.12,0.06,
7610.00,0.01,-0.02,-0.37,7611.00,0.00,-1.56,0.00,7613.00,0.06,0.06,0.00,
7619.00,0.00,-0.01,-0.37,7621.00,0.00,-1.56,0.00,7623.00,0.19,0.06,-0.06,
7629.00,0.01,-0.02,-0.37,7631.00,0.00,-1.56,0.00,7633.00,0.00,-0.12,-0.06,
7640.00,0.00,0.00,-0.38,7642.00,0.00,-1.56,0.00,7644.00,0.00,0.06,-0.06,
7650.00,-0.01,-0.01,-0.38,7652.00,0.00,-1.56,0.00,7654.00,-0.06,0.06,-0.06,
7660.00,0.02,0.00,-0.36,7662.00,0.00,-1.56,0.00,7663.00,0.00,0.06,0.06,
7668.00,0.00,-0.02,-0.36,7669.00,0.00,-1.56,0.00,7671.00,0.06,0.06,-0.19,
7678.00,0.01,-0.01,-0.38,7680.00,0.00,-1.56,0.00,7681.00,0.00,0.12,0.06,
7687.00,0.00,-0.02,-0.39,7688.00,0.00,-1.56,0.00,7689.00,0.00,0.00,-0.12,
7695.00,0.00,-0.02,-0.39,7696.00,0.00,-1.56,0.00,7697.00,-0.06,0.00,-0.06,
7703.00,0.01,0.00,-0.39,7705.00,0.00,-1.56,0.00,7706.00,-0.06,0.19,0.00,
7712.00,0.01,-0.01,-0.37,7713.00,0.00,-1.56,0.00,7715.00,-0.06,0.06,-0.06,
7720.00,0.03,0.00,-0.36,7724.00,0.00,-1.56,0.00,7726.00,-0.06,0.06,-0.06,
7731.00,0.03,0.00,-0.35,7733.00,0.00,-1.56,0.00,7735.00,0.25,-0.06,0.12,
7741.00,0.00,-0.02,-0.38,7743.00,0.00,-1.56,0.00,7745.00,0.00,0.06,0.00,
7751.00,0.01,-0.02,-0.40,7753.00,0.00,-1.56,0.00,7755.00,0.00,0.00,-0.06,
7761.00,0.01,-0.01,-0.36,7762.00,0.00,-1.56,0.00,7763.00,-0.12,-0.25,-0.06,
7770.00,0.01,-0.02,-0.36,7771.00,0.00,-1.56,0.00,7773.00,0.06,0.06,0.06,
7780.00,0.00,-0.02,-0.39,7781.00,0.00,-1.56,0.00,7783.00,0.12,0.12,0.00,
7789.00,0.00,-0.01,-0.39,7790.00,0.00,-1.56,0.00,7792.00,0.12,-0.12,-0.06,
7799.00,0.01,-0.02,-0.39,7800.00,0.00,-1.56,0.00,7802.00,-0.12,0.25,-0.25,
7809.00,0.00,0.00,-0.36,7810.00,0.00,-1.56,0.00,7811.00,0.00,0.00,0.12,
7816.00,0.01,0.00,-0.36,7817.00,0.00,-1.56,0.00,7818.00,0.00,-0.06,0.06,
7824.00,0.01,0.00,-0.36,7826.00,0.00,-1.56,0.00,7827.00,-0.06,0.00,-0.06,
7832.00,0.00,-0.02,-0.38,7834.00,0.00,-1.56,0.00,7836.00,0.00,0.19,0.12,
7842.00,0.00,-0.02,-0.39,7844.00,0.00,-1.56,0.00,7846.00,0.06,0.06,0.00,
7852.00,0.00,-0.01,-0.36,7854.00,0.00,-1.56,0.00,7856.00,0.06,0.06,0.00,
7862.00,0.00,0.00,-0.37,7863.00,0.00,-1.56,0.00,7864.00,-0.12,0.19,-0.06,
7870.00,0.02,0.00,-0.34,7871.00,0.00,-1.56,0.00,7873.00,0.00,-0.06,0.06,
7879.00,0.03,0.00,-0.36,7880.00,0.00,-1.56,0.00,7882.00,0.12,-0.19,-0.12,
7888.00,-0.01,0.00,-0.38,7889.00,0.00,-1.56,0.00,7890.00,0.00,-0.06,0.12,
7897.00,0.01,-0.01,-0.37,7899.00,0.00,-1.56,0.00,7900.00,0.00,0.12,-0.06,
7905.00,0.01,-0.01,-0.37,7907.00,0.00,-1.56,0.00,7908.00,0.19,0.12,0.06,
7913.00,0.00,0.00,-0.34,7915.00,0.00,-1.56,0.00,7917.00,-0.12,-0.06,0.00,
7922.00,0.01,-0.01,-0.36,7924.00,0.00,-1.56,0.00,7926.00,-0.06,0.19,-0.06,
7932.00,0.03,-0.01,-0.37,7934.00,0.00,-1.56,0.00,7937.00,-0.06,0.19,-0.06,
7942.00,0.01,0.00,-0.40,7944.00,0.00,-1.56,0.00,7946.00,-0.06,0.12,0.06,
7952.00,0.00,-0.02,-0.39,7954.00,0.00,-1.56,0.00,7956.00,0.00,-0.06,-0.06,
7962.00,0.00,-0.02,-0.36,7963.00,0.00,-1.56,0.00,7964.00,-0.06,-0.06,-0.06,
7970.00,0.03,-0.01,-0.37,7972.00,0.00,-1.56,0.00,7974.00,0.12,0.00,0.06,
7981.00,0.02,-0.02,-0.38,7983.00,0.00,-1.56,0.00,7985.00,-0.06,0.00,-0.06,
7991.00,0.00,-0.01,-0.38,7993.00,0.00,-1.56,0.00,7995.00,-0.19,0.31,0.06,
8002.00,0.02,0.00,-0.38,8004.00,0.00,-1.56,0.00,8006.00,0.06,0.06,0.06,
8012.00,0.00,0.00,-0.36,8013.00,0.00,-1.56,0.00,8014.00,0.19,-0.06,0.00,
8020.00,-0.01,-0.02,-0.36,8023.00,0.00,-1.56,0.00,8025.00,0.06,-0.19,0.12,
8031.00,0.02,0.00,-0.35,8032.00,0.00,-1.56,0.00,8034.00,0.25,-0.12,0.06,
8041.00,0.00,-0.01,-0.39,8042.00,0.00,-1.56,0.00,8044.00,0.06,-0.12,0.19,
8050.00,0.01,-0.02,-0.40,8052.00,0.00,-1.56,0.00,8054.00,-0.19,0.06,0.06,
8060.00,0.02,-0.01,-0.37,8061.00,0.00,-1.56,0.00,8062.00,0.00,0.00,0.06,
8068.00,0.02,-0.01,-0.36,8069.00,0.00,-1.56,0.00,8070.00,0.06,0.12,-0.12,
8075.00,0.02,-0.01,-0.36,8077.00,0.00,-1.56,0.00,8079.00,-0.06,0.00,0.00,
8084.00,0.00,-0.01,-0.35,8086.00,0.00,-1.56,0.00,8088.00,-0.06,0.25,-0.06,
8093.00,0.02,0.00,-0.40,8095.00,0.00,-1.56,0.00,8097.00,0.12,0.00,0.25,
8102.00,0.01,-0.03,-0.36,8104.00,0.00,-1.56,0.00,8107.00,0.12,0.00,0.25,
8113.00,0.01,-0.01,-0.38,8114.00,0.00,-1.56,0.00,8116.00,-0.06,0.00,0.06,
8122.00,0.00,-0.01,-0.36,8124.00,0.00,-1.56,0.00,8126.00,-0.06,0.00,-0.06,
8132.00,0.03,0.00,-0.35,8134.00,0.00,-1.56,0.00,8136.00,0.12,0.06,0.06,
8142.00,0.02,0.00,-0.37,8144.00,0.00,-1.56,0.00,8146.00,0.00,0.00,-0.06,
8153.00,0.00,-0.03,-0.37,8155.00,0.00,-1.56,0.00,8157.00,0.00,-0.19,-0.12,
8163.00,0.00,-0.02,-0.38,8164.00,0.00,-1.56,0.00,8165.00,0.00,0.00,-0.44,
8171.00,0.03,-0.02,-0.36,8173.00,0.00,-1.56,0.00,8174.00,0.00,0.06,0.06,
8181.00,-0.01,-0.02,-0.35,8182.00,0.00,-1.56,0.00,8184.00,0.06,0.12,-0.06,
8190.00,0.03,-0.02,-0.36,8192.00,0.00,-1.56,0.00,8194.00,0.00,0.19,-0.06,
8200.00,0.02,0.00,-0.36,8201.00,0.00,-1.56,0.00,8203.00,0.06,0.00,-0.06,
8209.00,0.03,0.00,-0.38,8210.00,0.00,-1.56,0.00,8211.00,-0.12,-0.06,-0.12,
8216.00,0.03,0.00,-0.38,8218.00,0.00,-1.56,0.00,8219.00,-0.12,-0.12,0.06,
8224.00,0.00,0.00,-0.36,8226.00,0.00,-1.56,0.00,8228.00,0.12,-0.06,-0.06,
8233.00,0.01,0.00,-0.40,8236.00,0.00,-1.56,0.00,8238.00,0.06,0.00,-0.12,
8244.00,0.00,0.00,-0.38,8246.00,0.00,-1.56,0.00,8248.00,0.06,0.00,-0.12,
8253.00,0.00,0.00,-0.37,8255.00,0.00,-1.56,0.00,8257.00,0.19,-0.06,0.00,
8263.00,0.00,0.00,-0.38,8264.00,0.00,-1.56,0.00,8265.00,0.00,-0.06,-0.06,
8271.00,0.01,0.00,-0.34,8272.00,0.00,-1.56,0.00,8274.00,-0.12,-0.06,0.06,
8281.00,0.00,-0.03,-0.37,8282.00,0.00,-1.56,0.00,8284.00,0.00,-0.12,0.00,
8290.00,0.03,0.00,-0.40,8291.00,0.00,-1.56,0.00,8293.00,0.12,-0.12,0.06,
8299.00,0.00,-0.02,-0.38,8300.00,0.00,-1.56,0.00,8301.00,0.00,-0.06,0.00,
8306.00,0.00,-0.02,-0.38,8308.00,0.00,-1.56,0.00,8309.00,0.00,-0.19,0.00,
8314.00,0.01,-0.04,-0.38,8316.00,0.00,-1.56,0.00,8318.00,0.06,0.00,0.06,
8324.00,0.00,-0.01,-0.36,8326.00,0.00,-1.56,0.00,8329.00,-0.12,0.19,-0.06,
8334.00,0.01,0.00,-0.38,8336.00,0.00,-1.56,0.00,8338.00,-0.12,0.19,-0.06,
8344.00,0.03,-0.01,-0.38,8346.00,0.00,-1.56,0.00,8348.00,-0.12,0.00,0.06,
8353.00,0.03,-0.01,-0.38,8356.00,0.00,-1.56,0.00,8358.00,-0.12,-0.06,0.00,
8364.00,0.01,-0.03,-0.38,8365.00,0.00,-1.56,0.00,8366.00,-0.06,-0.06,-0.12,
8372.00,0.03,-0.01,-0.37,8374.00,0.00,-1.56,0.00,8376.00,-0.06,-0.06,0.00,
8382.00,0.00,-0.01,-0.36,8383.00,0.00,-1.56,0.00,8385.00,0.12,-0.12,0.19,
8391.00,0.00,-0.01,-0.40,8392.00,0.00,-1.56,0.00,8394.00,-0.06,-0.06,0.12,
8401.00,0.02,0.00,-0.37,8402.00,0.00,-1.56,0.00,8403.00,0.06,0.00,-0.12,
8410.00,0.02,0.00,-0.40,8411.00,0.00,-1.56,0.00,8412.00,0.06,-0.12,0.06,
8417.00,0.02,0.00,-0.40,8419.00,0.00,-1.56,0.00,8420.00,0.12,-0.06,0.06,
8426.00,0.00,-0.01,-0.38,8428.00,0.00,-1.56,0.00,8429.00,0.06,0.06,0.00,
8435.00,0.01,0.00,-0.36,8437.00,0.00,-1.56,0.00,8439.00,-0.06,0.06,0.12,
8444.00,0.03,-0.01,-0.38,8446.00,0.00,-1.56,0.00,8449.00,0.06,-0.12,0.12,
8455.00,0.02,0.00,-0.37,8457.00,0.00,-1.56,0.00,8459.00,0.06,-0.12,0.12,
8464.00,0.02,0.00,-0.39,8465.00,0.00,-1.56,0.00,8466.00,0.06,0.06,0.06,
8473.00,0.01,-0.01,-0.38,8474.00,0.00,-1.56,0.00,8476.00,0.06,0.12,0.06,
8483.00,-0.01,-0.01,-0.37,8485.00,0.00,-1.56,0.00,8487.00,0.00,-0.12,0.12,
8494.00,0.00,-0.01,-0.37,8496.00,0.00,-1.56,0.00,8498.00,-0.06,0.06,0.00,
8504.00,0.01,0.00,-0.37,8506.00,0.00,-1.56,0.00,8508.00,0.12,-0.25,0.06,
8514.00,0.01,-0.01,-0.38,8515.00,0.00,-1.56,0.00,8517.00,-0.19,0.06,0.12,
8523.00,0.01,0.00,-0.38,8525.00,0.00,-1.56,0.00,8527.00,0.00,0.00,0.12,
8534.00,0.01,-0.02,-0.36,8536.00,0.00,-1.56,0.00,8538.00,0.00,0.19,0.06,
8544.00,0.04,0.00,-0.41,8546.00,0.00,-1.56,0.00,8548.00,0.06,0.12,0.06,
8554.00,0.00,0.00,-0.39,8556.00,0.00,-1.56,0.00,8558.00,0.19,-0.06,0.31,
8564.00,0.01,-0.01,-0.35,8565.00,0.00,-1.56,0.00,8566.00,-0.06,0.00,0.12,
8572.00,0.00,0.00,-0.36,8573.00,0.00,-1.56,0.00,8576.00,0.00,-0.06,-0.19,
8583.00,0.00,0.00,-0.37,8584.00,0.00,-1.56,0.00,8585.00,0.00,0.12,-0.12,
8592.00,0.01,0.00,-0.37,8593.00,0.00,-1.56,0.00,8594.00,-0.12,0.06,0.00,
8600.00,0.00,-0.01,-0.39,8601.00,0.00,-1.56,0.00,8602.00,0.19,-0.06,0.12,
8607.00,0.00,-0.01,-0.39,8609.00,0.00,-1.56,0.00,8611.00,0.12,0.06,0.19,
8616.00,0.00,-0.01,-0.38,8617.00,0.00,-1.56,0.00,8620.00,0.06,0.12,0.06,
8626.00,0.01,0.00,-0.39,8628.00,0.00,-1.56,0.00,8630.00,0.06,-0.12,0.00,
8635.00,0.00,-0.01,-0.35,8637.00,0.00,-1.56,0.00,8639.00,0.06,-0.12,0.00,
8645.00,0.02,-0.01,-0.40,8647.00,0.00,-1.56,0.00,8649.00,-0.12,0.25,0.00,
8655.00,0.02,0.01,-0.38,8657.00,0.00,-1.56,0.00,8659.00,-0.06,0.06,0.00,
8666.00,0.00,-0.02,-0.37,8667.00,0.00,-1.56,0.00,8668.00,-0.06,0.06,0.06,
8674.00,0.00,-0.01,-0.37,8676.00,0.00,-1.56,0.00,8678.00,0.06,-0.12,-0.06,
8684.00,0.02,-0.02,-0.38,8686.00,0.00,-1.56,0.00,8688.00,0.12,-0.06,-0.06,
8694.00,0.02,0.00,-0.37,8696.00,0.00,-1.56,0.00,8698.00,0.00,-0.31,0.12,
8705.00,0.02,-0.02,-0.34,8707.00,0.00,-1.56,0.00,8709.00,0.00,-0.06,0.06,
8715.00,0.03,0.00,-0.38,8716.00,0.00,-1.56,0.00,8718.00,0.00,0.00,0.00,
8724.00,0.00,-0.03,-0.37,8726.00,0.00,-1.56,0.00,8728.00,-0.06,-0.06,0.12,
8734.00,0.02,-0.02,-0.35,8736.00,0.00,-1.56,0.00,8738.00,0.12,-0.06,0.00,
8744.00,0.00,0.00,-0.38,8747.00,0.00,-1.56,0.00,8749.00,0.06,0.06,0.19,
8755.00,0.02,-0.01,-0.35,8757.00,0.00,-1.56,0.00,8759.00,0.12,0.06,0.06,
8765.00,0.01,0.00,-0.36,8766.00,0.00,-1.56,0.00,8768.00,-0.06,0.25,0.06,
8774.00,0.00,-0.01,-0.33,8775.00,0.00,-1.56,0.00,8777.00,0.06,0.06,0.12,
8783.00,0.02,-0.01,-0.40,8784.00,0.00,-1.56,0.00,8786.00,0.12,0.19,0.12,
8794.00,0.00,-0.01,-0.37,8795.00,0.00,-1.56,0.00,8797.00,0.12,0.06,0.00,
8803.00,0.02,0.00,-0.39,8804.00,0.00,-1.56,0.00,8805.00,0.00,0.00,0.12,
8811.00,0.01,0.00,-0.38,8812.00,0.00,-1.56,0.00,8813.00,0.06,0.06,0.00,
8819.00,0.01,0.00,-0.38,8821.00,0.00,-1.56,0.00,8822.00,0.12,-0.06,0.19,
8827.00,0.01,0.01,-0.36,8829.00,0.00,-1.56,0.00,8832.00,0.06,0.06,0.06,
8837.00,0.02,-0.01,-0.37,8839.00,0.00,-1.56,0.00,8841.00,0.12,0.31,0.00,
8846.00,0.02,-0.02,-0.37,8848.00,0.00,-1.56,0.00,8850.00,0.12,0.31,0.00,
8856.00,0.00,0.00,-0.36,8858.00,0.00,-1.56,0.00,8860.00,0.06,0.06,0.19,
8866.00,0.01,0.00,-0.37,8867.00,0.00,-1.56,0.00,8868.00,-0.06,0.06,0.06,
8873.00,0.00,-0.01,-0.37,8875.00,0.00,-1.56,0.00,8877.00,0.06,-0.06,-0.12,
8884.00,0.02,0.00,-0.38,8885.00,0.00,-1.56,0.00,8886.00,-0.12,-0.12,-0.12,
8892.00,0.03,-0.02,-0.37,8893.00,0.00,-1.56,0.00,8894.00,-0.12,0.19,-0.12,
8899.00,0.03,-0.02,-0.37,8901.00,0.00,-1.56,0.00,8902.00,-0.06,0.00,0.00,
8907.00,0.03,-0.02,-0.35,8910.00,0.00,-1.56,0.00,8911.00,0.06,-0.12,0.06,
8918.00,0.00,-0.02,-0.37,8919.00,0.00,-1.56,0.00,8921.00,0.06,-0.12,0.06,
8926.00,0.02,-0.01,-0.36,8929.00,0.00,-1.56,0.00,8931.00,0.06,0.00,-0.06,
8936.00,0.00,-0.01,-0.38,8938.00,0.00,-1.56,0.00,8940.00,-0.06,-0.06,-0.12,
8946.00,0.02,-0.01,-0.39,8948.00,0.00,-1.56,0.00,8950.00,-0.12,-0.12,-0.06,
8956.00,0.01,-0.01,-0.39,8958.00,0.00,-1.56,0.00,8961.00,-0.06,-0.12,-0.06,
8967.00,0.01,0.00,-0.37,8968.00,0.00,-1.56,0.00,8969.00,-0.12,-0.06,-0.06,
8975.00,0.01,-0.01,-0.38,8977.00,0.00,-1.56,0.00,8979.00,-0.12,0.06,0.06,
8986.00,0.02,-0.02,-0.36,8988.00,0.00,-1.56,0.00,8990.00,0.06,0.00,-0.06,
8996.00,0.01,0.00,-0.38,8998.00,0.00,-1.56,0.00,9000.00,-0.06,-0.06,0.12,
9007.00,0.00,-0.01,-0.38,9009.00,0.00,-1.56,0.00,9011.00,-0.06,-0.06,-0.12,
9017.00,0.01,-0.01,-0.37,9018.00,0.00,-1.56,0.00,9019.00,0.00,0.00,-0.12,
9025.00,0.00,-0.03,-0.36,9027.00,0.00,-1.56,0.00,9029.00,0.00,-0.12,0.00,
9036.00,0.00,0.00,-0.38,9038.00,0.00,-1.56,0.00,9040.00,0.06,0.00,0.00,
9047.00,0.02,0.01,-0.39,9049.00,0.00,-1.56,0.00,9051.00,0.00,0.00,-0.06,
9057.00,0.01,-0.02,-0.39,9059.00,0.00,-1.56,0.00,9061.00,0.06,0.19,0.06,
9067.00,0.00,0.00,-0.36,9068.00,0.00,-1.56,0.00,9069.00,-0.12,0.00,0.12,
9075.00,0.01,-0.01,-0.37,9076.00,0.00,-1.56,0.00,9078.00,0.06,0.00,0.00,
9084.00,0.02,0.00,-0.36,9086.00,0.00,-1.56,0.00,9089.00,0.06,-0.19,0.06,
9095.00,0.01,-0.02,-0.41,9096.00,0.00,-1.56,0.00,9098.00,-0.06,0.06,-0.12,
9104.00,0.02,-0.02,-0.35,9105.00,0.00,-1.56,0.00,9106.00,0.00,0.00,-0.06,
9112.00,0.01,0.00,-0.36,9113.00,0.00,-1.56,0.00,9114.00,-0.12,0.06,0.12,
9119.00,0.01,0.00,-0.36,9122.00,0.00,-1.56,0.00,9123.00,0.06,-0.06,-0.06,
9128.00,0.02,-0.02,-0.35,9131.00,0.00,-1.56,0.00,9133.00,-0.06,0.00,0.00,
9138.00,0.03,0.01,-0.39,9140.00,0.00,-1.56,0.00,9142.00,-0.19,0.12,0.00,
9147.00,0.00,0.00,-0.41,9149.00,0.00,-1.56,0.00,9151.00,-0.19,0.12,0.00,
9157.00,0.01,0.00,-0.37,9159.00,0.00,-1.56,0.00,9161.00,0.00,-0.06,-0.06,
9167.00,0.01,-0.01,-0.37,9168.00,0.00,-1.56,0.00,9169.00,-0.12,-0.12,0.06,
9176.00,0.00,-0.02,-0.36,9178.00,0.00,-1.56,0.00,9180.00,-0.06,-0.12,0.00,
9187.00,0.01,-0.01,-0.36,9189.00,0.00,-1.56,0.00,9191.00,0.06,0.06,-0.06,
9197.00,0.00,-0.02,-0.39,9199.00,0.00,-1.56,0.00,9201.00,-0.06,-0.12,0.06,
9207.00,0.00,-0.01,-0.38,9209.00,0.00,-1.56,0.00,9211.00,0.06,0.06,0.06,
9218.00,0.02,-0.01,-0.35,9219.00,0.00,-1.56,0.00,9220.00,-0.06,0.19,0.06,
9227.00,0.01,-0.02,-0.37,9229.00,0.00,-1.56,0.00,9231.00,0.19,0.00,0.06,
9237.00,0.02,0.00,-0.39,9239.00,0.00,-1.56,0.00,9241.00,-0.06,-0.06,0.00,
9247.00,0.00,0.01,-0.39,9249.00,0.00,-1.56,0.00,9251.00,0.00,-0.12,-0.12,
9257.00,0.01,0.00,-0.39,9260.00,0.00,-1.56,0.00,9262.00,0.06,-0.06,0.06,
9268.00,0.00,-0.02,-0.37,9269.00,0.00,-1.56,0.00,9270.00,0.00,0.12,0.12,
9276.00,0.00,0.00,-0.37,9277.00,0.00,-1.56,0.00,9279.00,0.19,0.00,0.12,
9285.00,0.02,-0.02,-0.36,9287.00,0.00,-1.56,0.00,9289.00,0.06,-0.06,-0.06,
9295.00,0.01,-0.03,-0.38,9296.00,0.00,-1.56,0.00,9298.00,0.06,0.06,0.19,
9305.00,0.02,0.00,-0.36,9306.00,0.00,-1.56,0.00,9307.00,0.00,0.12,-0.12,
9313.00,0.02,0.00,-0.37,9314.00,0.00,-1.56,0.00,9315.00,-0.06,0.06,-0.06,
9321.00,0.02,0.00,-0.37,9323.00,0.00,-1.56,0.00,9324.00,0.00,-0.06,0.06,
9329.00,0.00,0.00,-0.40,9331.00,0.00,-1.56,0.00,9333.00,0.00,0.00,0.00,
9338.00,0.00,0.00,-0.39,9340.00,0.00,-1.56,0.00,9342.00,-0.12,0.12,0.06,
9348.00,0.03,-0.01,-0.36,9351.00,0.00,-1.56,0.00,9353.00,-0.12,0.12,0.06,
9358.00,0.01,-0.01,-0.38,9360.00,0.00,-1.56,0.00,9362.00,0.00,0.00,0.00,
9368.00,0.00,-0.01,-0.40,9369.00,0.00,-1.56,0.00,9370.00,-0.12,-0.06,-0.06,
9376.00,0.01,-0.01,-0.37,9377.00,0.00,-1.56,0.00,9379.00,0.06,-0.06,0.19,
9385.00,0.01,-0.01,-0.35,9388.00,0.00,-1.56,0.00,9390.00,-0.12,0.06,0.06,
9396.00,0.00,-0.04,-0.40,9397.00,0.00,-1.56,0.00,9399.00,-0.12,-0.06,0.00,
9405.00,0.00,-0.03,-0.38,9406.00,0.00,-1.56,0.00,9407.00,0.12,-0.19,-0.06,
9413.00,0.00,0.00,-0.37,9414.00,0.00,-1.56,0.00,9415.00,-0.06,-0.06,0.00,
9420.00,0.00,0.00,-0.37,9422.00,0.00,-1.56,0.00,9424.00,-0.12,-0.12,-0.06,
9430.00,0.01,-0.03,-0.40,9432.00,0.00,-1.56,0.00,9434.00,-0.12,-0.06,0.12,
9439.00,0.03,0.00,-0.38,9441.00,0.00,-1.56,0.00,9443.00,0.00,0.06,-0.06,
9449.00,0.02,-0.02,-0.39,9451.00,0.00,-1.56,0.00,9453.00,0.00,0.06,-0.06,
9458.00,0.02,0.00,-0.39,9460.00,0.00,-1.56,0.00,9462.00,-0.06,0.06,0.00,
9468.00,0.02,-0.02,-0.37,9469.00,0.00,-1.56,0.00,9470.00,0.00,0.06,0.00,
9477.00,0.00,0.00,-0.36,9479.00,0.00,-1.56,0.00,9481.00,-0.12,0.12,-0.12,
9488.00,0.01,-0.01,-0.37,9490.00,0.00,-1.56,0.00,9492.00,0.12,0.06,0.00,
9498.00,0.03,-0.01,-0.38,9500.00,0.00,-1.56,0.00,9502.00,0.00,-0.06,0.06,
9508.00,0.01,-0.02,-0.38,9510.00,0.00,-1.56,0.00,9512.00,-0.12,0.06,-0.06,
9519.00,0.02,0.00,-0.36,9520.00,0.00,-1.56,0.00,9521.00,0.00,0.19,-0.06,
9528.00,0.01,-0.02,-0.38,9530.00,0.00,-1.56,0.00,9532.00,0.00,-0.06,-0.12,
9538.00,0.02,-0.01,-0.37,9540.00,0.00,-1.56,0.00,9542.00,0.12,0.00,0.06,
9548.00,0.03,-0.02,-0.36,9550.00,0.00,-1.56,0.00,9552.00,0.00,-0.06,0.06,
9559.00,0.01,-0.02,-0.39,9561.00,0.00,-1.56,0.00,9563.00,-0.06,-0.19,0.06,
9569.00,0.03,-0.02,-0.36,9570.00,0.00,-1.56,0.00,9571.00,0.00,0.19,0.00,
9577.00,0.02,0.01,-0.37,9578.00,0.00,-1.56,0.00,9580.00,0.00,0.19,0.06,
9587.00,0.01,-0.03,-0.38,9588.00,0.00,-1.56,0.00,9590.00,-0.12,0.12,0.00,
9596.00,0.02,-0.01,-0.38,9597.00,0.00,-1.56,0.00,9598.00,0.00,0.00,-0.19,
9605.00,0.02,0.00,-0.36,9606.00,0.00,-1.56,0.00,9607.00,0.12,-0.12,0.06,
9612.00,0.02,0.00,-0.36,9615.00,0.00,-1.56,0.00,9616.00,0.06,-0.12,-0.12,
9621.00,0.00,-0.01,-0.35,9623.00,0.00,-1.56,0.00,9625.00,-0.12,0.12,-0.06,
9630.00,0.00,0.00,-0.33,9632.00,0.00,-1.56,0.00,9634.00,0.00,-0.06,-0.12,
9639.00,0.00,-0.02,-0.38,9641.00,0.00,-1.56,0.00,9644.00,-0.12,0.06,0.12,
9650.00,0.01,-0.02,-0.38,9652.00,0.00,-1.56,0.00,9654.00,-0.12,0.06,0.12,
9659.00,0.02,0.00,-0.37,9661.00,0.00,-1.56,0.00,9663.00,0.00,0.00,-0.06,
9669.00,0.01,0.00,-0.36,9670.00,0.00,-1.56,0.00,9671.00,0.12,0.00,0.00,
9677.00,0.01,-0.01,-0.37,9679.00,0.00,-1.56,0.00,9681.00,0.00,-0.06,-0.06,
9688.00,0.01,0.00,-0.37,9690.00,0.00,-1.56,0.00,9692.00,0.00,-0.06,0.12,
9698.00,0.00,-0.01,-0.37,9700.00,0.00,-1.56,0.00,9702.00,0.06,-0.12,0.00,
9708.00,0.01,0.00,-0.39,9710.00,0.00,-1.56,0.00,9712.00,-0.06,0.06,-0.12,
9718.00,0.00,0.00,-0.38,9719.00,0.00,-1.56,0.00,9720.00,0.00,0.00,0.00,
9726.00,0.02,0.00,-0.37,9728.00,0.00,-1.56,0.00,9729.00,0.12,-0.12,0.00,
9735.00,0.01,-0.01,-0.37,9736.00,0.00,-1.56,0.00,9737.00,-0.12,-0.25,0.06,
9743.00,0.01,-0.01,-0.37,9745.00,0.00,-1.56,0.00,9746.00,0.00,0.00,0.00,
9751.00,0.02,-0.01,-0.36,9753.00,0.00,-1.56,0.00,9755.00,0.00,0.25,-0.12,
9760.00,0.00,0.00,-0.39,9762.00,0.00,-1.56,0.00,9764.00,0.06,0.06,0.00,
9771.00,0.01,0.00,-0.38,9772.00,0.00,-1.56,0.00,9773.00,0.06,0.06,0.00,
9779.00,0.00,-0.02,-0.36,9781.00,0.00,-1.56,0.00,9783.00,0.00,0.12,-0.06,
9789.00,0.01,-0.01,-0.38,9791.00,0.00,-1.56,0.00,9793.00,-0.19,0.19,0.00,
9799.00,0.00,-0.01,-0.40,9801.00,0.00,-1.56,0.00,9803.00,0.06,-0.06,-0.06,
9809.00,0.00,0.00,-0.38,9811.00,0.00,-1.56,0.00,9814.00,0.00,-0.06,0.25,
9820.00,0.02,-0.01,-0.37,9821.00,0.00,-1.56,0.00,9823.00,0.12,0.12,0.00,
9829.00,0.00,0.00,-0.36,9831.00,0.00,-1.56,0.00,9833.00,0.00,-0.06,0.06,
9839.00,0.00,0.00,-0.39,9841.00,0.00,-1.56,0.00,9843.00,-0.06,-0.12,0.00,
9849.00,0.01,-0.01,-0.37,9851.00,0.00,-1.56,0.00,9853.00,0.06,-0.19,-0.12,
9860.00,0.00,-0.02,-0.37,9862.00,0.00,-1.56,0.00,9864.00,0.00,0.12,0.12,
9870.00,0.02,0.00,-0.38,9871.00,0.00,-1.56,0.00,9872.00,-0.06,0.12,0.06,
9878.00,0.02,0.00,-0.36,9879.00,0.00,-1.56,0.00,9880.00,0.06,0.00,0.12,
9886.00,0.02,-0.01,-0.37,9887.00,0.00,-1.56,0.00,9888.00,0.00,0.00,0.00,
9894.00,0.02,-0.01,-0.37,9896.00,0.00,-1.56,0.00,9897.00,-0.06,0.25,0.12,
9903.00,0.02,-0.02,-0.41,9905.00,0.00,-1.56,0.00,9906.00,-0.19,0.06,0.00,
9911.00,0.00,0.00,-0.38,9914.00,0.00,-1.56,0.00,9916.00,-0.06,0.00,0.12,
9921.00,0.01,-0.02,-0.39,9922.00,0.00,-1.56,0.00,9924.00,-0.06,0.00,0.12,
9930.00,0.02,-0.01,-0.39,9932.00,0.00,-1.56,0.00,9934.00,0.06,0.00,0.00,
9940.00,0.01,0.00,-0.40,9943.00,0.00,-1.56,0.00,9945.00,-0.12,-0.06,-0.06,
9951.00,0.00,-0.01,-0.41,9953.00,0.00,-1.56,0.00,9955.00,0.00,0.12,0.06,
9960.00,0.01,-0.02,-0.38,9962.00,0.00,-1.56,0.00,9965.00,0.19,-0.12,0.00,
9970.00,0.00,-0.01,-0.35,9971.00,0.00,-1.56,0.00,9972.00,0.06,0.00,-0.06,
9979.00,0.01,-0.02,-0.37,9980.00,0.00,-1.56,0.00,9982.00,-0.19,-0.06,0.12,
9990.00,0.00,-0.03,-0.38,9991.00,0.00,-1.56,0.00,9993.00,-0.25,0.12,0.00,
10000.00,0.00,-0.01,-0.40,10002.00,0.00,-1.56,0.00,10004.00,-0.06,0.00,0.06,
10010.00,0.01,-0.01,-0.36,10012.00,0.00,-1.56,0.00,10014.00,0.06,-0.06,0.12,
10020.00,0.01,-0.02,-0.36,10021.00,0.00,-1.56,0.00,10022.00,-0.12,0.00,0.00,
10030.00,0.01,-0.02,-0.37,10032.00,0.00,-1.56,0.00,10034.00,-0.12,0.25,0.00,
10040.00,0.01,-0.01,-0.38,10042.00,0.00,-1.56,0.00,10044.00,-0.06,-0.12,0.19,
10050.00,0.00,0.00,-0.39,10053.00,0.00,-1.56,0.00,10055.00,-0.06,-0.06,-0.19,
10060.00,0.00,-0.01,-0.36,10062.00,0.00,-1.56,0.00,10065.00,0.00,-0.12,-0.06,
10072.00,0.01,0.00,-0.37,10073.00,0.00,-1.56,0.00,10074.00,-0.12,0.12,-0.06,
10080.00,0.01,-0.01,-0.36,10082.00,0.00,-1.56,0.00,10084.00,-0.12,0.25,0.00,
10090.00,0.01,-0.02,-0.36,10092.00,0.00,-1.56,0.00,10094.00,-0.06,0.06,-0.06,
10101.00,0.01,-0.03,-0.38,10103.00,0.00,-1.56,0.00,10105.00,0.12,-0.12,0.06,
10112.00,0.01,-0.01,-0.38,10114.00,0.00,-1.56,0.00,10116.00,-0.06,-0.19,0.00,
10122.00,0.02,-0.01,-0.38,10123.00,0.00,-1.56,0.00,10125.00,-0.12,-0.25,0.12,
10131.00,0.00,-0.01,-0.34,10133.00,0.00,-1.56,0.00,10135.00,0.00,0.12,0.00,
10141.00,0.02,0.00,-0.38,10143.00,0.00,-1.56,0.00,10145.00,0.00,0.12,0.00,
10151.00,0.00,0.01,-0.39,10153.00,0.00,-1.56,0.00,10156.00,0.00,0.12,0.06,
10162.00,0.02,-0.01,-0.38,10164.00,0.00,-1.56,0.00,10166.00,0.00,0.06,0.00,
10172.00,0.00,-0.02,-0.38,10173.00,0.00,-1.56,0.00,10174.00,-0.12,0.06,0.06,
10180.00,0.00,-0.02,-0.35,10182.00,0.00,-1.56,0.00,10184.00,-0.06,0.12,0.06,
10191.00,0.00,-0.02,-0.38,10193.00,0.00,-1.56,0.00,10195.00,-0.12,-0.25,0.06,
10202.00,0.00,0.00,-0.37,10204.00,0.00,-1.56,0.00,10206.00,0.12,0.12,0.19,
10212.00,0.01,-0.03,-0.35,10214.00,0.00,-1.56,0.00,10216.00,0.12,0.12,-0.06,
10222.00,0.03,-0.01,-0.38,10223.00,0.00,-1.56,0.00,10225.00,0.00,-0.12,0.00,
10231.00,0.01,-0.02,-0.38,10233.00,0.00,-1.56,0.00,10235.00,-0.06,0.06,0.00,
10242.00,0.01,0.00,-0.37,10244.00,0.00,-1.56,0.00,10246.00,0.00,0.25,-0.06,
10252.00,0.00,-0.02,-0.35,10254.00,0.00,-1.56,0.00,10256.00,-0.06,0.19,-0.12,
10262.00,0.00,-0.02,-0.39,10264.00,0.00,-1.56,0.00,10266.00,0.12,0.00,-0.06,
10272.00,0.00,0.00,-0.38,10273.00,0.00,-1.56,0.00,10274.00,0.06,0.12,0.00,
10280.00,0.00,0.00,-0.36,10283.00,0.00,-1.56,0.00,10285.00,0.00,-0.12,0.00,
10292.00,0.01,-0.01,-0.40,10294.00,0.00,-1.56,0.00,10296.00,0.00,-0.12,0.00,
10302.00,0.01,0.00,-0.37,10304.00,0.00,-1.56,0.00,10306.00,-0.12,-0.06,0.06,
10312.00,0.04,-0.02,-0.36,10314.00,0.00,-1.56,0.00,10316.00,-0.12,0.19,0.06,
10322.00,0.02,-0.01,-0.35,10323.00,0.00,-1.56,0.00,10326.00,-0.12,0.25,0.00,
10332.00,0.01,0.00,-0.37,10334.00,0.00,-1.56,0.00,10336.00,-0.06,0.06,0.19,
10342.00,0.00,0.00,-0.36,10344.00,0.00,-1.56,0.00,10346.00,0.12,0.00,0.12,
10352.00,0.02,0.01,-0.38,10354.00,0.00,-1.56,0.00,10356.00,0.06,0.06,-0.06,
10362.00,0.03,0.00,-0.39,10364.00,0.00,-1.56,0.00,10366.00,0.00,0.00,0.12,
10373.00,0.00,-0.01,-0.34,10374.00,0.00,-1.56,0.00,10375.00,-0.19,0.06,0.12,
10381.00,0.01,-0.01,-0.36,10382.00,0.00,-1.56,0.00,10384.00,-0.25,0.25,0.00,
10391.00,0.00,-0.01,-0.38,10392.00,0.00,-1.56,0.00,10394.00,-0.06,-0.12,0.00,
10401.00,0.00,-0.01,-0.37,10403.00,0.00,-1.56,0.00,10405.00,-0.19,-0.12,0.06,
10412.00,0.00,-0.01,-0.38,10414.00,0.00,-1.56,0.00,10416.00,-0.19,-0.37,0.12,
10422.00,0.01,-0.02,-0.35,10424.00,0.00,-1.56,0.00,10425.00,-0.19,0.06,-0.12,
10431.00,0.02,-0.02,-0.36,10433.00,0.00,-1.56,0.00,10435.00,-0.12,0.06,-0.19,
10441.00,0.01,-0.04,-0.37,10443.00,0.00,-1.56,0.00,10445.00,-0.06,-0.06,-0.12,
10452.00,0.01,0.00,-0.41,10455.00,0.00,-1.56,0.00,10457.00,-0.06,0.12,0.12,
10463.00,0.02,-0.04,-0.37,10465.00,0.00,-1.56,0.00,10467.00,-0.06,0.12,0.00,
10473.00,0.01,0.00,-0.36,10474.00,0.00,-1.56,0.00,10475.00,-0.06,-0.06,0.12,
10481.00,0.00,-0.01,-0.37,10483.00,0.00,-1.56,0.00,10485.00,0.00,-0.25,0.12,
10492.00,0.02,-0.01,-0.38,10494.00,0.00,-1.56,0.00,10497.00,-0.12,-0.06,0.19,
10503.00,0.02,-0.02,-0.38,10505.00,0.00,-1.56,0.00,10507.00,0.00,0.00,0.00,
10513.00,0.02,0.00,-0.38,10515.00,0.00,-1.56,0.00,10517.00,-0.19,-0.06,-0.06,
10523.00,0.01,-0.02,-0.36,10524.00,0.00,-1.56,0.00,10526.00,-0.12,0.00,-0.06,
10532.00,0.00,-0.02,-0.36,10534.00,0.00,-1.56,0.00,10536.00,0.12,-0.12,0.00,
10543.00,0.04,0.00,-0.38,10545.00,0.00,-1.56,0.00,10547.00,0.19,-0.19,0.00,
10553.00,0.00,0.00,-0.38,10555.00,0.00,-1.56,0.00,10557.00,0.00,-0.12,-0.06,
10563.00,0.00,-0.02,-0.39,10565.00,0.00,-1.56,0.00,10567.00,0.06,-0.12,0.06,
10573.00,0.00,-0.01,-0.37,10574.00,0.00,-1.56,0.00,10575.00,-0.12,0.06,0.06,
10582.00,0.01,-0.02,-0.36,10585.00,0.00,-1.56,0.00,10587.00,-0.06,-0.19,-0.19,
10593.00,0.01,0.00,-0.35,10595.00,0.00,-1.56,0.00,10597.00,0.06,-0.06,0.12,
10603.00,0.01,0.00,-0.37,10605.00,0.00,-1.56,0.00,10607.00,0.06,-0.19,0.00,
10613.00,0.01,-0.01,-0.35,10615.00,0.00,-1.56,0.00,10617.00,0.00,-0.12,0.06,
10624.00,0.00,0.00,-0.36,10625.00,0.00,-1.56,0.00,10627.00,0.00,0.06,0.12,
10633.00,0.00,-0.01,-0.36,10635.00,0.00,-1.56,0.00,10637.00,0.06,0.00,-0.12,
10643.00,0.01,-0.02,-0.36,10645.00,0.00,-1.56,0.00,10647.00,-0.06,-0.12,-0.06,
10653.00,0.01,-0.02,-0.40,10655.00,0.00,-1.56,0.00,10657.00,0.19,0.00,0.00,
10663.00,0.00,-0.01,-0.38,10665.00,0.00,-1.56,0.00,10668.00,0.06,0.00,-0.19,
10674.00,0.00,0.00,-0.37,10675.00,0.00,-1.56,0.00,10676.00,0.12,-0.06,0.12,
10682.00,0.02,0.00,-0.36,10685.00,0.00,-1.56,0.00,10687.00,0.00,0.00,0.00,
10693.00,0.01,-0.03,-0.38,10695.00,0.00,-1.56,0.00,10697.00,-0.12,-0.25,0.06,
10703.00,0.00,0.00,-0.39,10705.00,0.00,-1.56,0.00,10707.00,-0.25,-0.06,0.12,
10714.00,0.00,-0.01,-0.37,10716.00,0.00,-1.56,0.00,10718.00,-0.12,-0.06,0.06,
10724.00,0.00,0.00,-0.39,10725.00,0.00,-1.56,0.00,10727.00,0.06,-0.06,0.00,
10733.00,0.01,-0.02,-0.36,10735.00,0.00,-1.56,0.00,10737.00,-0.06,-0.06,0.06,
10743.00,0.01,0.01,-0.35,10745.00,0.00,-1.56,0.00,10747.00,0.00,-0.19,0.06,
10754.00,0.00,-0.01,-0.39,10756.00,0.00,-1.56,0.00,10758.00,-0.12,0.19,-0.12,
10764.00,0.02,0.00,-0.38,10766.00,0.00,-1.56,0.00,10768.00,0.06,0.00,-0.06,
10774.00,0.01,-0.02,-0.36,10775.00,0.00,-1.56,0.00,10776.00,0.12,-0.19,-0.06,
10783.00,0.01,0.00,-0.36,10785.00,0.00,-1.56,0.00,10787.00,0.00,-0.06,0.06,
10793.00,-0.01,-0.02,-0.37,10796.00,0.00,-1.56,0.00,10798.00,0.00,-0.31,0.12,
10804.00,0.01,-0.02,-0.42,10806.00,0.00,-1.56,0.00,10808.00,0.00,-0.25,-0.12,
10814.00,0.01,-0.02,-0.36,10816.00,0.00,-1.56,0.00,10818.00,0.12,-0.12,0.00,
10824.00,0.00,-0.01,-0.36,10825.00,0.00,-1.56,0.00,10827.00,-0.06,-0.12,-0.12,
10833.00,0.03,0.00,-0.37,10835.00,0.00,-1.56,0.00,10839.00,0.00,-0.19,0.00,
10844.00,0.02,-0.02,-0.38,10846.00,0.00,-1.56,0.00,10849.00,0.06,0.00,0.06,
10854.00,0.01,-0.01,-0.37,10856.00,0.00,-1.56,0.00,10858.00,0.00,0.06,0.06,
10864.00,0.00,-0.01,-0.37,10866.00,0.00,-1.56,0.00,10868.00,-0.12,-0.25,0.00,
10874.00,0.00,0.00,-0.37,10875.00,0.00,-1.56,0.00,10876.00,-0.12,0.06,-0.06,
10883.00,0.02,0.00,-0.37,10885.00,0.00,-1.56,0.00,10887.00,-0.19,-0.25,0.12,
10894.00,0.00,0.00,-0.35,10896.00,0.00,-1.56,0.00,10898.00,-0.12,-0.12,0.00,
10904.00,0.02,-0.01,-0.41,10906.00,0.00,-1.56,0.00,10908.00,-0.19,0.12,-0.06,
10914.00,0.03,-0.02,-0.38,10916.00,0.00,-1.56,0.00,10918.00,0.06,0.12,0.06,
10925.00,0.02,-0.02,-0.38,10926.00,0.00,-1.56,0.00,10928.00,0.06,-0.06,0.00,
10934.00,0.02,-0.03,-0.36,10936.00,0.00,-1.56,0.00,10939.00,-0.12,0.00,-0.06,
10944.00,0.01,-0.02,-0.37,10947.00,0.00,-1.56,0.00,10949.00,-0.06,0.00,0.00,
10954.00,0.01,-0.01,-0.38,10956.00,0.00,-1.56,0.00,10958.00,-0.06,-0.19,0.06,
10964.00,0.00,-0.02,-0.38,10967.00,0.00,-1.56,0.00,10969.00,-0.06,0.00,-0.19,
10975.00,0.00,-0.02,-0.36,10976.00,0.00,-1.56,0.00,10977.00,-0.12,-0.06,0.12,
10984.00,0.02,-0.01,-0.40,10986.00,0.00,-1.56,0.00,10988.00,-0.06,0.19,0.00,
10994.00,0.02,0.00,-0.36,10996.00,0.00,-1.56,0.00,10998.00,-0.19,0.25,-0.12,
11004.00,0.00,-0.02,-0.40,11006.00,0.00,-1.56,0.00,11009.00,-0.12,0.31,0.06,
11015.00,0.00,0.00,-0.36,11017.00,0.00,-1.56,0.00,11019.00,0.06,0.06,0.12,
11025.00,0.02,0.00,-0.38,11026.00,0.00,-1.56,0.00,11028.00,0.06,-0.06,-0.12,
11034.00,0.01,-0.01,-0.36,11037.00,0.00,-1.56,0.00,11039.00,-0.12,0.12,0.06,
11045.00,0.00,0.00,-0.40,11047.00,0.00,-1.56,0.00,11049.00,-0.06,0.19,0.12,
11056.00,0.02,-0.02,-0.37,11058.00,0.00,-1.56,0.00,11060.00,0.00,0.25,-0.06,
11065.00,0.01,-0.02,-0.36,11067.00,0.00,-1.56,0.00,11069.00,-0.12,0.00,0.12,
11075.00,0.02,-0.01,-0.36,11076.00,0.00,-1.56,0.00,11078.00,-0.06,0.19,-0.12,
11084.00,-0.01,-0.01,-0.39,11086.00,0.00,-1.56,0.00,11088.00,-0.06,0.06,-0.06,
11095.00,0.03,0.00,-0.35,11097.00,0.00,-1.56,0.00,11099.00,0.00,-0.06,-0.12,
11105.00,-0.01,-0.02,-0.38,11107.00,0.00,-1.56,0.00,11109.00,-0.06,-0.06,0.00,
11115.00,0.02,-0.01,-0.37,11117.00,0.00,-1.56,0.00,11119.00,-0.06,0.00,-0.06,
11125.00,0.01,0.00,-0.38,11126.00,0.00,-1.56,0.00,11128.00,-0.12,-0.06,0.19,
11134.00,0.03,0.00,-0.36,11138.00,0.00,-1.56,0.00,11140.00,0.12,-0.12,-0.06,
11146.00,0.00,0.00,-0.36,11148.00,0.00,-1.56,0.00,11150.00,0.00,-0.06,0.06,
11156.00,0.01,0.00,-0.36,11158.00,0.00,-1.56,0.00,11160.00,0.00,-0.06,-0.12,
11165.00,0.01,0.00,-0.35,11168.00,0.00,-1.56,0.00,11170.00,-0.06,-0.06,0.19,
11175.00,0.00,-0.02,-0.36,11177.00,0.00,-1.56,0.00,11179.00,0.06,-0.12,0.00,
11185.00,-0.01,0.00,-0.38,11187.00,0.00,-1.56,0.00,11189.00,0.19,0.12,-0.12,
11195.00,0.01,0.00,-0.36,11197.00,0.00,-1.56,0.00,11199.00,0.06,0.00,-0.06,
11205.00,0.00,0.00,-0.39,11207.00,0.00,-1.56,0.00,11209.00,0.12,0.12,-0.12,
11215.00,0.03,-0.02,-0.39,11217.00,0.00,-1.56,0.00,11219.00,0.00,-0.12,0.06,
11226.00,0.01,0.00,-0.38,11228.00,0.00,-1.56,0.00,11229.00,0.06,-0.06,0.00,
11236.00,0.02,-0.01,-0.38,11238.00,0.00,-1.56,0.00,11240.00,0.06,-0.25,0.06,
11246.00,0.00,0.00,-0.39,11248.00,0.00,-1.56,0.00,11250.00,0.06,0.19,0.12,
11256.00,0.01,-0.01,-0.38,11258.00,0.00,-1.56,0.00,11260.00,-0.06,0.12,-0.06,
11267.00,0.01,0.02,-0.39,11269.00,0.00,-1.56,0.00,11271.00,0.00,0.00,0.06,
11277.00,0.00,-0.01,-0.36,11278.00,0.00,-1.56,0.00,11279.00,0.06,0.00,0.06,
11285.00,0.02,-0.01,-0.37,11287.00,0.00,-1.56,0.00,11289.00,0.00,-0.12,0.06,
11295.00,0.00,0.00,-0.39,11297.00,0.00,-1.56,0.00,11299.00,0.06,-0.25,0.06,
11305.00,0.00,-0.01,-0.38,11308.00,0.00,-1.56,0.00,11310.00,0.06,-0.25,0.06,
11316.00,0.00,-0.01,-0.37,11318.00,0.00,-1.56,0.00,11320.00,0.00,0.12,0.00,
11326.00,0.01,-0.01,-0.37,11328.00,0.00,-1.56,0.00,11329.00,-0.19,0.12,0.00,
11336.00,0.00,-0.01,-0.35,11338.00,0.00,-1.56,0.00,11340.00,0.00,-0.25,-0.06,
11346.00,0.02,-0.01,-0.34,11348.00,0.00,-1.56,0.00,11351.00,-0.06,0.06,0.00,
11357.00,0.00,0.00,-0.38,11359.00,0.00,-1.56,0.00,11361.00,0.00,0.00,0.06,
11367.00,0.01,0.00,-0.36,11369.00,0.00,-1.56,0.00,11371.00,0.00,0.00,0.06,
11376.00,0.00,-0.01,-0.35,11378.00,0.00,-1.56,0.00,11379.00,0.00,-0.19,0.06,
11385.00,0.01,-0.03,-0.36,11386.00,0.00,-1.56,0.00,11388.00,0.12,0.12,0.12,
11396.00,0.01,0.01,-0.37,11398.00,0.00,-1.56,0.00,11400.00,0.00,0.19,0.00,
11406.00,0.02,0.00,-0.38,11408.00,0.00,-1.56,0.00,11410.00,-0.06,0.25,0.06,
11416.00,0.02,0.00,-0.38,11418.00,0.00,-1.56,0.00,11420.00,0.00,0.00,-0.06,
11426.00,0.01,0.00,-0.36,11427.00,0.00,-1.56,0.00,11429.00,0.00,0.25,0.00,
11436.00,0.01,0.00,-0.37,11438.00,0.00,-1.56,0.00,11440.00,-0.06,0.25,-0.06,
11447.00,0.01,-0.01,-0.38,11449.00,0.00,-1.56,0.00,11451.00,0.00,0.06,-0.12,
11457.00,0.00,-0.01,-0.38,11459.00,0.00,-1.56,0.00,11461.00,0.00,0.00,0.06,
11467.00,0.02,-0.02,-0.38,11469.00,0.00,-1.56,0.00,11471.00,-0.06,-0.06,0.06,
11478.00,0.01,0.00,-0.38,11479.00,0.00,-1.56,0.00,11480.00,-0.19,-0.12,0.00,
11486.00,0.00,-0.02,-0.36,11488.00,0.00,-1.56,0.00,11490.00,0.12,-0.12,0.06,
11496.00,0.02,-0.02,-0.39,11499.00,0.00,-1.56,0.00,11501.00,0.06,-0.06,0.06,
11507.00,0.01,-0.02,-0.39,11509.00,0.00,-1.56,0.00,11511.00,0.06,-0.12,-0.06,
11517.00,0.00,-0.01,-0.37,11520.00,0.00,-1.56,0.00,11522.00,-0.06,0.00,0.00,
11528.00,0.00,0.00,-0.39,11529.00,0.00,-1.56,0.00,11530.00,0.00,0.06,0.12,
11537.00,0.00,-0.01,-0.37,11539.00,0.00,-1.56,0.00,11541.00,0.00,0.06,-0.06,
11547.00,0.00,0.00,-0.36,11549.00,0.00,-1.56,0.00,11551.00,0.12,0.12,0.06,
11557.00,0.00,0.00,-0.38,11559.00,0.00,-1.56,0.00,11561.00,-0.12,-0.19,0.00,
11568.00,0.01,-0.02,-0.36,11570.00,0.00,-1.56,0.00,11572.00,-0.06,-0.25,-0.12,
11578.00,0.00,0.00,-0.36,11579.00,0.00,-1.56,0.00,11580.00,-0.19,0.25,0.06,
11586.00,0.01,0.00,-0.36,11588.00,0.00,-1.56,0.00,11590.00,-0.12,0.06,0.12,
11597.00,0.00,-0.02,-0.37,11599.00,0.00,-1.56,0.00,11601.00,0.00,0.00,0.00,
11607.00,0.00,0.00,-0.39,11610.00,0.00,-1.56,0.00,11612.00,0.00,-0.19,-0.06,
11617.00,0.00,0.00,-0.38,11619.00,0.00,-1.56,0.00,11622.00,-0.06,0.06,-0.12,
11628.00,0.00,-0.01,-0.37,11629.00,0.00,-1.56,0.00,11630.00,0.00,0.06,-0.06,
11637.00,0.02,0.00,-0.37,11639.00,0.00,-1.56,0.00,11641.00,0.00,0.06,-0.12,
11648.00,0.01,-0.01,-0.37,11650.00,0.00,-1.56,0.00,11652.00,0.00,0.06,0.06,
11658.00,0.01,0.00,-0.39,11660.00,0.00,-1.56,0.00,11662.00,-0.06,0.19,-0.06,
11668.00,0.01,-0.02,-0.37,11670.00,0.00,-1.56,0.00,11672.00,0.00,0.19,-0.06,
11678.00,0.02,0.00,-0.36,11679.00,0.00,-1.56,0.00,11680.00,-0.06,0.06,-0.12,
11686.00,0.02,0.00,-0.36,11688.00,0.00,-1.56,0.00,11691.00,-0.06,0.19,-0.19,
11698.00,0.02,-0.01,-0.38,11700.00,0.00,-1.56,0.00,11702.00,-0.12,-0.06,0.00,
11708.00,0.00,-0.01,-0.39,11710.00,0.00,-1.56,0.00,11712.00,0.12,0.19,0.00,
11718.00,0.03,0.00,-0.37,11720.00,0.00,-1.56,0.00,11722.00,0.00,0.00,0.06,
11728.00,0.00,0.00,-0.35,11729.00,0.00,-1.56,0.00,11730.00,0.00,0.19,0.06,
11738.00,0.00,-0.02,-0.35,11740.00,0.00,-1.56,0.00,11742.00,0.19,0.06,0.12,
11748.00,0.00,0.00,-0.37,11750.00,0.00,-1.56,0.00,11752.00,0.06,0.06,-0.12,
11758.00,0.01,0.00,-0.40,11760.00,0.00,-1.56,0.00,11762.00,-0.12,0.06,-0.06,
11768.00,0.01,0.00,-0.41,11770.00,0.00,-1.56,0.00,11772.00,0.00,0.19,0.06,
11779.00,0.00,-0.02,-0.36,11780.00,0.00,-1.56,0.00,11781.00,0.06,0.06,0.06,
11787.00,0.00,0.00,-0.35,11789.00,0.00,-1.56,0.00,11791.00,-0.12,0.12,-0.06,
11798.00,0.02,-0.01,-0.38,11800.00,0.00,-1.56,0.00,11802.00,-0.12,-0.06,0.12,
11808.00,0.02,0.00,-0.40,11810.00,0.00,-1.56,0.00,11812.00,-0.06,0.00,0.06,
11819.00,0.00,0.00,-0.38,11821.00,0.00,-1.56,0.00,11823.00,-0.06,-0.06,0.12,
11829.00,0.00,0.00,-0.37,11830.00,0.00,-1.56,0.00,11832.00,0.00,0.12,0.06,
11838.00,0.01,0.00,-0.36,11840.00,0.00,-1.56,0.00,11842.00,0.00,0.06,0.00,
11848.00,0.00,0.01,-0.36,11850.00,0.00,-1.56,0.00,11852.00,0.06,-0.06,0.12,
11858.00,0.01,0.00,-0.41,11860.00,0.00,-1.56,0.00,11863.00,-0.12,-0.06,-0.06,
11869.00,0.01,0.00,-0.39,11871.00,0.00,-1.56,0.00,11873.00,-0.12,0.06,0.12,
11879.00,0.00,0.00,-0.36,11880.00,0.00,-1.56,0.00,11881.00,-0.06,0.06,0.06,
11887.00,0.00,0.00,-0.36,11889.00,0.00,-1.56,0.00,11891.00,-0.12,-0.12,0.00,
11897.00,0.01,-0.02,-0.39,11899.00,0.00,-1.56,0.00,11901.00,0.06,0.12,-0.06,
11909.00,0.00,-0.02,-0.38,11911.00,0.00,-1.56,0.00,11913.00,0.06,0.12,0.00,
11919.00,0.01,0.01,-0.36,11921.00,0.00,-1.56,0.00,11923.00,-0.06,-0.06,-0.06,
11929.00,0.00,-0.01,-0.39,11930.00,0.00,-1.56,0.00,11931.00,0.00,0.06,0.00,
11938.00,0.01,-0.02,-0.37,11940.00,0.00,-1.56,0.00,11942.00,-0.06,0.00,0.19,
11949.00,0.02,-0.01,-0.36,11951.00,0.00,-1.56,0.00,11953.00,-0.06,0.06,0.06,
11959.00,0.01,0.01,-0.39,11961.00,0.00,-1.56,0.00,11963.00,-0.06,0.06,-0.06,
11969.00,0.00,-0.02,-0.39,11971.00,0.00,-1.56,0.00,11973.00,0.00,-0.12,0.06,
11979.00,0.00,0.00,-0.37,11980.00,0.00,-1.56,0.00,11981.00,-0.06,0.00,0.00,
11987.00,0.01,0.00,-0.38,11990.00,0.00,-1.56,0.00,11992.00,-0.12,-0.06,-0.06,
11999.00,0.02,0.00,-0.37,12001.00,0.00,-1.56,0.00,12003.00,0.00,-0.12,0.06,
12009.00,0.00,0.00,-0.39,12011.00,0.00,-1.56,0.00,12013.00,-0.06,-0.12,0.12,
12019.00,0.02,-0.02,-0.37,12021.00,0.00,-1.56,0.00,12023.00,-0.06,-0.19,0.00,
12029.00,0.00,-0.01,-0.37,12030.00,0.00,-1.56,0.00,12033.00,0.12,-0.06,-0.06,
12039.00,0.02,0.00,-0.38,12041.00,0.00,-1.56,0.00,12043.00,0.12,-0.12,0.12,
12049.00,0.00,-0.02,-0.37,12051.00,0.00,-1.56,0.00,12053.00,-0.12,0.19,-0.12,
12059.00,0.01,0.00,-0.37,12061.00,0.00,-1.56,0.00,12063.00,-0.12,0.00,0.06,
12069.00,0.01,-0.01,-0.38,12071.00,0.00,-1.56,0.00,12073.00,-0.06,0.00,0.00,
12080.00,0.03,-0.03,-0.36,12081.00,0.00,-1.56,0.00,12082.00,0.00,-0.06,0.00,
12088.00,0.00,0.00,-0.37,12090.00,0.00,-1.56,0.00,12092.00,0.06,-0.06,0.00,
12099.00,0.00,-0.04,-0.36,12101.00,0.00,-1.56,0.00,12103.00,0.00,0.19,0.12,
12109.00,0.01,-0.02,-0.40,12111.00,0.00,-1.56,0.00,12113.00,0.00,0.00,-0.19,
12120.00,0.00,-0.01,-0.36,12122.00,0.00,-1.56,0.00,12124.00,0.06,0.00,-0.06,
12130.00,0.02,-0.03,-0.35,12131.00,0.00,-1.56,0.00,12132.00,0.06,0.25,-0.06,
12139.00,0.00,-0.02,-0.36,12141.00,0.00,-1.56,0.00,12143.00,0.06,0.12,0.12,
12149.00,0.00,0.00,-0.37,12151.00,0.00,-1.56,0.00,12153.00,-0.06,0.19,0.00,
12160.00,0.00,-0.02,-0.38,12162.00,0.00,-1.56,0.00,12164.00,0.00,-0.12,0.06,
12170.00,0.01,-0.01,-0.37,12172.00,0.00,-1.56,0.00,12174.00,-0.06,0.00,-0.06,
12180.00,0.00,0.00,-0.36,12181.00,0.00,-1.56,0.00,12182.00,0.00,-0.06,-0.12,
12188.00,0.01,0.01,-0.37,12190.00,0.00,-1.56,0.00,12192.00,-0.19,-0.06,0.06,
12199.00,0.00,0.00,-0.38,12201.00,0.00,-1.56,0.00,12204.00,-0.12,-0.19,0.06,
12210.00,0.02,-0.02,-0.38,12212.00,0.00,-1.56,0.00,12214.00,-0.19,-0.12,-0.12,
12220.00,0.00,-0.01,-0.35,12222.00,0.00,-1.56,0.00,12224.00,-0.06,-0.06,-0.12,
12230.00,0.01,0.00,-0.35,12231.00,0.00,-1.56,0.00,12233.00,-0.12,0.06,-0.06,
12239.00,0.02,-0.01,-0.36,12241.00,0.00,-1.56,0.00,12243.00,0.00,-0.06,-0.12,
12250.00,0.01,-0.01,-0.39,12252.00,0.00,-1.56,0.00,12254.00,0.00,0.06,0.00,
12260.00,0.01,0.00,-0.40,12262.00,0.00,-1.56,0.00,12264.00,0.06,0.00,0.12,
12270.00,0.01,-0.03,-0.37,12272.00,0.00,-1.56,0.00,12274.00,0.06,-0.06,0.00,
12280.00,0.00,-0.02,-0.36,12281.00,0.00,-1.56,0.00,12282.00,0.00,0.12,-0.12,
12289.00,0.01,-0.01,-0.37,12292.00,0.00,-1.56,0.00,12294.00,-0.19,-0.19,-0.06,
12300.00,0.01,0.00,-0.37,12302.00,0.00,-1.56,0.00,12304.00,-0.06,-0.12,-0.12,
12310.00,0.02,0.00,-0.37,12312.00,0.00,-1.56,0.00,12314.00,-0.06,0.06,0.00,
12320.00,0.00,0.01,-0.37,12322.00,0.00,-1.56,0.00,12324.00,0.06,0.12,-0.06,
12331.00,0.02,-0.01,-0.37,12332.00,0.00,-1.56,0.00,12334.00,-0.06,0.06,0.06,
12340.00,0.02,-0.01,-0.36,12342.00,0.00,-1.56,0.00,12344.00,0.00,0.12,-0.06,
12350.00,0.00,-0.02,-0.36,12352.00,0.00,-1.56,0.00,12354.00,0.00,0.06,0.06,
12360.00,0.01,0.00,-0.38,12362.00,0.00,-1.56,0.00,12364.00,-0.06,-0.06,0.06,
12370.00,0.02,0.00,-0.39,12372.00,0.00,-1.56,0.00,12375.00,-0.06,-0.19,0.06,
12381.00,0.01,-0.02,-0.39,12382.00,0.00,-1.56,0.00,12383.00,0.00,-0.12,0.00,
12389.00,0.00,-0.02,-0.38,12392.00,0.00,-1.56,0.00,12394.00,0.00,0.00,-0.06,
12400.00,0.02,0.00,-0.36,12402.00,0.00,-1.56,0.00,12404.00,0.06,0.06,0.06,
12410.00,0.04,-0.02,-0.40,12412.00,0.00,-1.56,0.00,12414.00,-0.12,0.19,-0.06,
12421.00,-0.01,-0.01,-0.39,12423.00,0.00,-1.56,0.00,12425.00,0.00,-0.06,0.00,
12431.00,0.02,-0.01,-0.36,12432.00,0.00,-1.56,0.00,12434.00,0.12,0.19,-0.12,
12440.00,0.00,0.00,-0.36,12442.00,0.00,-1.56,0.00,12444.00,0.19,0.06,0.00,
12450.00,0.00,0.01,-0.38,12452.00,0.00,-1.56,0.00,12454.00,0.19,0.06,-0.06,
12461.00,0.00,-0.03,-0.38,12463.00,0.00,-1.56,0.00,12465.00,0.12,0.19,0.12,
12471.00,0.01,0.00,-0.39,12473.00,0.00,-1.56,0.00,12475.00,0.00,-0.12,0.00,
12481.00,0.00,0.00,-0.37,12482.00,0.00,-1.56,0.00,12483.00,0.12,-0.25,0.00,
12490.00,0.00,-0.02,-0.37,12492.00,0.00,-1.56,0.00,12494.00,0.00,-0.19,-0.19,
12500.00,0.00,0.00,-0.38,12503.00,0.00,-1.56,0.00,12505.00,0.00,0.19,-0.12,
12511.00,0.01,0.00,-0.40,12513.00,0.00,-1.56,0.00,12515.00,0.00,0.00,0.06,
12521.00,0.03,0.00,-0.37,12523.00,0.00,-1.56,0.00,12525.00,0.12,-0.19,-0.12,
12531.00,0.01,-0.03,-0.36,12532.00,0.00,-1.56,0.00,12534.00,0.12,-0.19,0.06,
12540.00,0.01,0.00,-0.37,12542.00,0.00,-1.56,0.00,12545.00,0.12,0.00,0.12,
12551.00,0.01,-0.02,-0.33,12553.00,0.00,-1.56,0.00,12555.00,0.12,-0.06,0.00,
12561.00,0.03,-0.01,-0.40,12563.00,0.00,-1.56,0.00,12565.00,0.00,-0.06,-0.06,
12571.00,0.02,-0.01,-0.38,12573.00,0.00,-1.56,0.00,12575.00,0.06,0.06,-0.12,
12581.00,0.00,-0.02,-0.36,12582.00,0.00,-1.56,0.00,12583.00,-0.06,0.00,0.00,
12591.00,0.01,0.00,-0.34,12593.00,0.00,-1.56,0.00,12595.00,-0.06,-0.06,0.06,
12601.00,0.02,0.00,-0.38,12603.00,0.00,-1.56,0.00,12605.00,-0.06,-0.06,0.12,
12611.00,0.02,0.00,-0.37,12613.00,0.00,-1.56,0.00,12615.00,0.19,0.00,0.00,
12621.00,0.00,0.00,-0.37,12623.00,0.00,-1.56,0.00,12625.00,0.12,0.06,0.06,
12632.00,0.01,-0.01,-0.40,12633.00,0.00,-1.56,0.00,12635.00,0.00,0.06,-0.06,
12641.00,0.01,-0.03,-0.37,12643.00,0.00,-1.56,0.00,12645.00,0.00,-0.06,0.06,
12651.00,0.00,0.00,-0.37,12653.00,0.00,-1.56,0.00,12655.00,0.00,-0.19,0.06,
12661.00,0.00,0.00,-0.38,12663.00,0.00,-1.56,0.00,12665.00,-0.06,0.06,-0.06,
12672.00,0.02,0.00,-0.36,12674.00,0.00,-1.56,0.00,12676.00,0.00,0.06,0.06,
12682.00,0.01,-0.01,-0.36,12683.00,0.00,-1.56,0.00,12684.00,0.00,-0.12,-0.12,
12691.00,0.01,-0.01,-0.36,12693.00,0.00,-1.56,0.00,12695.00,0.00,0.12,-0.06,
12701.00,0.02,0.00,-0.36,12703.00,0.00,-1.56,0.00,12705.00,-0.12,-0.06,0.00,
12711.00,0.00,-0.03,-0.40,12713.00,0.00,-1.56,0.00,12716.00,0.00,-0.06,0.31,
12722.00,0.00,0.00,-0.38,12724.00,0.00,-1.56,0.00,12726.00,-0.06,-0.19,0.06,
12732.00,0.00,-0.02,-0.36,12733.00,0.00,-1.56,0.00,12735.00,-0.06,0.00,0.00,
12741.00,0.01,-0.01,-0.36,12744.00,0.00,-1.56,0.00,12746.00,-0.06,0.06,0.12,
12752.00,0.01,-0.03,-0.36,12754.00,0.00,-1.56,0.00,12756.00,0.06,0.12,0.12,
12763.00,0.01,0.00,-0.38,12765.00,0.00,-1.56,0.00,12767.00,0.06,0.06,-0.06,
12772.00,0.00,-0.03,-0.36,12774.00,0.00,-1.56,0.00,12776.00,-0.12,0.00,-0.06,
12782.00,0.01,-0.01,-0.38,12784.00,0.00,-1.56,0.00,12785.00,0.25,-0.12,-0.06,
12791.00,0.01,0.00,-0.40,12793.00,0.00,-1.56,0.00,12795.00,0.12,-0.06,0.00,
12802.00,0.02,-0.01,-0.36,12804.00,0.00,-1.56,0.00,12806.00,0.00,0.12,-0.06,
12812.00,0.01,-0.01,-0.38,12814.00,0.00,-1.56,0.00,12816.00,-0.12,0.12,-0.06,
12822.00,0.00,0.00,-0.38,12824.00,0.00,-1.56,0.00,12826.00,-0.06,0.00,-0.06,
12832.00,0.03,-0.01,-0.37,12834.00,0.00,-1.56,0.00,12835.00,-0.06,-0.19,0.00,
12843.00,0.01,-0.02,-0.36,12845.00,0.00,-1.56,0.00,12847.00,0.06,-0.06,-0.06,
12853.00,0.02,0.01,-0.39,12855.00,0.00,-1.56,0.00,12857.00,0.00,-0.25,-0.06,
12863.00,0.02,0.01,-0.36,12865.00,0.00,-1.56,0.00,12867.00,0.19,0.00,-0.06,
12872.00,0.01,-0.02,-0.38,12875.00,0.00,-1.56,0.00,12877.00,0.12,0.00,0.06,
12882.00,0.00,0.00,-0.38,12883.00,0.00,-1.56,0.00,12884.00,0.19,-0.19,0.12,
12891.00,0.00,-0.02,-0.35,12893.00,0.00,-1.56,0.00,12895.00,0.06,0.19,-0.06,
12902.00,0.00,0.00,-0.36,12904.00,0.00,-1.56,0.00,12906.00,0.19,-0.06,-0.06,
12912.00,0.00,0.02,-0.38,12914.00,0.00,-1.56,0.00,12916.00,0.06,-0.06,-0.06,
12922.00,0.01,0.01,-0.36,12924.00,0.00,-1.56,0.00,12926.00,0.12,0.00,0.06,
12933.00,0.02,-0.01,-0.36,12935.00,0.00,-1.56,0.00,12936.00,0.06,-0.06,0.12,
12943.00,0.00,-0.02,-0.36,12945.00,0.00,-1.56,0.00,12947.00,0.12,-0.25,0.06,
12953.00,0.01,0.00,-0.39,12955.00,0.00,-1.56,0.00,12957.00,0.00,0.00,-0.31,
12963.00,0.01,0.00,-0.36,12965.00,0.00,-1.56,0.00,12967.00,-0.06,-0.06,0.12,
12974.00,0.00,-0.02,-0.39,12976.00,0.00,-1.56,0.00,12978.00,0.00,0.06,0.06,
12984.00,0.02,-0.02,-0.36,12985.00,0.00,-1.56,0.00,12986.00,0.12,-0.06,0.12,
12992.00,0.01,0.00,-0.34,12994.00,0.00,-1.56,0.00,12996.00,0.12,0.25,-0.12,
13002.00,0.01,-0.02,-0.36,13005.00,0.00,-1.56,0.00,13007.00,0.12,0.06,0.06,
13014.00,0.02,-0.01,-0.38,13016.00,0.00,-1.56,0.00,13018.00,0.19,0.12,-0.06,
13023.00,0.00,-0.01,-0.37,13026.00,0.00,-1.56,0.00,13028.00,-0.06,0.06,0.06,
13034.00,0.00,0.00,-0.39,13035.00,0.00,-1.56,0.00,13036.00,0.00,0.12,-0.12,
13043.00,0.01,-0.01,-0.36,13045.00,0.00,-1.56,0.00,13047.00,0.12,-0.06,-0.12,
13053.00,0.02,0.00,-0.36,13056.00,0.00,-1.56,0.00,13058.00,0.06,0.00,0.00,
13064.00,0.02,0.01,-0.38,13066.00,0.00,-1.56,0.00,13068.00,0.06,-0.12,-0.12,
13074.00,0.01,-0.03,-0.38,13076.00,0.00,-1.56,0.00,13078.00,0.12,-0.06,0.00,
13084.00,0.00,0.00,-0.37,13085.00,0.00,-1.56,0.00,13086.00,0.12,0.00,0.00,
13092.00,0.02,-0.02,-0.39,13094.00,0.00,-1.56,0.00,13096.00,-0.12,-0.31,-0.12,
13103.00,0.01,0.00,-0.36,13105.00,0.00,-1.56,0.00,13107.00,0.12,-0.19,-0.12,
13114.00,0.00,-0.02,-0.38,13116.00,0.00,-1.56,0.00,13118.00,0.00,0.00,0.00,
13123.00,0.00,-0.02,-0.37,13125.00,0.00,-1.56,0.00,13127.00,0.06,-0.12,-0.06,
13133.00,0.00,-0.02,-0.40,13135.00,0.00,-1.56,0.00,13136.00,-0.06,0.12,0.12,
13143.00,0.00,0.00,-0.39,13145.00,0.00,-1.56,0.00,13147.00,-0.12,-0.06,0.00,
13154.00,0.02,-0.02,-0.37,13156.00,0.00,-1.56,0.00,13158.00,0.00,-0.19,-0.06,
13164.00,0.01,-0.01,-0.37,13166.00,0.00,-1.56,0.00,13168.00,0.06,0.19,-0.06,
13174.00,0.00,0.00,-0.39,13176.00,0.00,-1.56,0.00,13178.00,0.12,0.06,-0.12,
13185.00,0.02,0.00,-0.36,13186.00,0.00,-1.56,0.00,13187.00,0.00,-0.06,0.00,
13193.00,0.01,-0.01,-0.37,13195.00,0.00,-1.56,0.00,13197.00,0.06,-0.06,0.00,
13203.00,0.01,0.00,-0.38,13206.00,0.00,-1.56,0.00,13208.00,0.00,0.00,0.06,
13214.00,0.02,0.00,-0.36,13216.00,0.00,-1.56,0.00,13218.00,0.12,0.12,0.06,
13224.00,0.03,0.00,-0.36,13227.00,0.00,-1.56,0.00,13229.00,0.06,0.19,-0.06,
13235.00,0.02,-0.02,-0.36,13236.00,0.00,-1.56,0.00,13238.00,0.12,0.19,0.00,
13244.00,0.02,0.00,-0.39,13246.00,0.00,-1.56,0.00,13248.00,0.00,-0.06,0.12,
13254.00,0.01,-0.02,-0.34,13256.00,0.00,-1.56,0.00,13258.00,0.12,-0.06,-0.06,
13264.00,0.01,0.01,-0.37,13266.00,0.00,-1.56,0.00,13268.00,0.12,0.00,-0.06,
13275.00,0.01,-0.02,-0.36,13277.00,0.00,-1.56,0.00,13279.00,0.00,-0.12,-0.25,
13285.00,0.01,-0.02,-0.39,13286.00,0.00,-1.56,0.00,13287.00,0.00,-0.12,0.06,
13293.00,0.01,0.00,-0.32,13295.00,0.00,-1.56,0.00,13297.00,0.06,0.00,0.00,
13304.00,0.01,-0.02,-0.39,13306.00,0.00,-1.56,0.00,13308.00,-0.19,0.12,0.12,
13315.00,0.02,-0.01,-0.38,13317.00,0.00,-1.56,0.00,13319.00,0.00,-0.06,0.12,
13325.00,0.00,-0.01,-0.36,13327.00,0.00,-1.56,0.00,13329.00,-0.12,0.12,0.00,
13335.00,0.01,0.00,-0.36,13336.00,0.00,-1.56,0.00,13338.00,-0.12,0.12,0.06,
13344.00,0.00,-0.03,-0.37,13346.00,0.00,-1.56,0.00,13348.00,0.06,-0.06,0.00,
13355.00,0.01,-0.01,-0.36,13357.00,0.00,-1.56,0.00,13359.00,0.19,0.06,-0.19,
13365.00,0.01,0.00,-0.38,13367.00,0.00,-1.56,0.00,13369.00,0.00,0.00,0.06,
13375.00,0.00,0.00,-0.38,13377.00,0.00,-1.56,0.00,13379.00,0.06,-0.12,0.00,
13385.00,0.00,0.00,-0.37,13386.00,0.00,-1.56,0.00,13387.00,0.06,-0.06,0.19,
13393.00,0.01,-0.02,-0.37,13394.00,0.00,-1.56,0.00,13396.00,0.06,0.12,-0.19,
13404.00,0.01,-0.01,-0.37,13405.00,0.00,-1.56,0.00,13407.00,0.00,0.00,-0.12,
13413.00,0.00,0.01,-0.38,13415.00,0.00,-1.56,0.00,13417.00,-0.06,-0.06,0.00,
13424.00,0.01,0.00,-0.35,13426.00,0.00,-1.56,0.00,13428.00,0.00,0.06,0.00,
13434.00,0.00,-0.01,-0.38,13435.00,0.00,-1.56,0.00,13436.00,0.12,0.12,-0.12,
13444.00,0.00,-0.03,-0.37,13445.00,0.00,-1.56,0.00,13447.00,0.00,0.12,0.00,
13454.00,0.01,-0.01,-0.38,13456.00,0.00,-1.56,0.00,13458.00,-0.06,-0.12,-0.12,
13464.00,0.00,-0.02,-0.40,13466.00,0.00,-1.56,0.00,13468.00,0.06,-0.19,-0.06,
13474.00,0.01,0.00,-0.39,13476.00,0.00,-1.56,0.00,13479.00,-0.12,0.06,0.06,
13486.00,0.01,0.00,-0.35,13487.00,0.00,-1.56,0.00,13488.00,0.06,0.00,-0.06,
13494.00,0.01,0.00,-0.38,13496.00,0.00,-1.56,0.00,13498.00,0.00,0.12,0.06,
13504.00,0.00,0.00,-0.39,13506.00,0.00,-1.56,0.00,13508.00,-0.12,-0.06,-0.06,
13514.00,0.00,0.00,-0.39,13516.00,0.00,-1.56,0.00,13518.00,-0.06,0.00,0.06,
13524.00,0.02,0.00,-0.36,13527.00,0.00,-1.56,0.00,13529.00,-0.06,0.06,-0.12,
13536.00,0.00,-0.02,-0.35,13537.00,0.00,-1.56,0.00,13538.00,-0.12,0.12,-0.19,
13544.00,0.00,-0.02,-0.38,13547.00,0.00,-1.56,0.00,13549.00,0.00,-0.06,-0.12,
13555.00,0.01,0.00,-0.37,13557.00,0.00,-1.56,0.00,13559.00,-0.25,-0.19,-0.12,
13565.00,0.00,0.00,-0.40,13568.00,0.00,-1.56,0.00,13570.00,0.00,0.19,0.12,
13576.00,0.00,-0.01,-0.39,13578.00,0.00,-1.56,0.00,13580.00,0.00,0.00,0.00,
13586.00,0.01,0.00,-0.36,13587.00,0.00,-1.56,0.00,13588.00,-0.06,-0.12,0.06,
13594.00,0.00,-0.01,-0.36,13596.00,0.00,-1.56,0.00,13598.00,-0.19,0.12,0.00,
13605.00,0.00,-0.01,-0.37,13607.00,0.00,-1.56,0.00,13609.00,0.06,0.06,0.06,
13616.00,0.00,-0.02,-0.38,13618.00,0.00,-1.56,0.00,13620.00,0.00,0.06,-0.06,
13626.00,0.00,-0.01,-0.37,13628.00,0.00,-1.56,0.00,13630.00,0.00,0.00,-0.06,
13636.00,0.00,0.00,-0.36,13637.00,0.00,-1.56,0.00,13639.00,-0.19,0.00,-0.06,
13645.00,0.00,0.00,-0.38,13647.00,0.00,-1.56,0.00,13649.00,-0.06,0.06,0.12,
13656.00,0.00,0.01,-0.37,13658.00,0.00,-1.56,0.00,13660.00,0.06,0.00,0.12,
13666.00,0.04,0.00,-0.39,13668.00,0.00,-1.56,0.00,13670.00,-0.06,0.06,-0.06,
13676.00,0.00,0.00,-0.38,13678.00,0.00,-1.56,0.00,13680.00,0.00,-0.06,0.00,
13686.00,0.00,-0.04,-0.35,13687.00,0.00,-1.56,0.00,13688.00,0.06,-0.19,-0.06,
13694.00,0.02,-0.02,-0.38,13698.00,0.00,-1.56,0.00,13700.00,0.06,-0.25,-0.19,
13706.00,0.01,-0.02,-0.39,13708.00,0.00,-1.56,0.00,13710.00,0.06,-0.06,-0.06,
13716.00,0.02,-0.02,-0.37,13718.00,0.00,-1.56,0.00,13720.00,-0.06,0.12,0.00,
13726.00,0.02,0.00,-0.37,13728.00,0.00,-1.56,0.00,13730.00,0.06,-0.06,0.06,
13736.00,0.02,-0.01,-0.38,13737.00,0.00,-1.56,0.00,13740.00,-0.06,0.06,-0.12,
13746.00,0.01,-0.01,-0.39,13748.00,0.00,-1.56,0.00,13750.00,0.06,-0.25,-0.06,
13756.00,0.02,-0.01,-0.35,13758.00,0.00,-1.56,0.00,13760.00,0.00,0.00,-0.19,
13766.00,0.00,0.00,-0.39,13768.00,0.00,-1.56,0.00,13770.00,0.00,0.00,-0.06,
13776.00,0.01,-0.01,-0.39,13778.00,0.00,-1.56,0.00,13780.00,0.00,-0.06,0.00,
13787.00,0.00,-0.01,-0.36,13788.00,0.00,-1.56,0.00,13789.00,0.12,0.06,-0.06,
13796.00,0.01,0.00,-0.37,13797.00,0.00,-1.56,0.00,13800.00,0.12,-0.12,0.00,
13806.00,0.04,-0.03,-0.36,13808.00,0.00,-1.56,0.00,13810.00,-0.19,-0.12,-0.06,
13816.00,0.02,0.00,-0.39,13818.00,0.00,-1.56,0.00,13820.00,-0.12,-0.06,0.06,
13827.00,0.00,-0.02,-0.37,13829.00,0.00,-1.56,0.00,13831.00,0.00,-0.06,-0.06,
13837.00,0.02,0.00,-0.38,13838.00,0.00,-1.56,0.00,13840.00,-0.12,0.00,0.06,
13846.00,0.00,0.00,-0.35,13848.00,0.00,-1.56,0.00,13850.00,0.06,0.00,-0.06,
13856.00,0.02,-0.02,-0.35,13858.00,0.00,-1.56,0.00,13860.00,-0.12,0.25,-0.06,
13867.00,0.00,0.00,-0.39,13869.00,0.00,-1.56,0.00,13871.00,0.00,0.19,0.00,
13877.00,0.01,0.00,-0.40,13879.00,0.00,-1.56,0.00,13881.00,-0.06,0.31,0.00,
13887.00,0.00,-0.01,-0.39,13888.00,0.00,-1.56,0.00,13889.00,-0.06,0.00,-0.06,
13895.00,0.02,0.00,-0.38,13897.00,0.00,-1.56,0.00,13899.00,-0.06,-0.06,0.06,
13906.00,0.02,-0.03,-0.37,13908.00,0.00,-1.56,0.00,13911.00,0.06,-0.19,0.00,
13917.00,0.01,-0.01,-0.37,13919.00,0.00,-1.56,0.00,13921.00,-0.12,0.12,0.00,
13927.00,0.00,0.00,-0.37,13929.00,0.00,-1.56,0.00,13931.00,-0.12,-0.12,0.06,
13937.00,0.01,0.00,-0.36,13938.00,0.00,-1.56,0.00,13940.00,-0.19,0.06,0.06,
13946.00,0.00,-0.02,-0.39,13948.00,0.00,-1.56,0.00,13950.00,0.00,0.00,0.06,
13957.00,0.02,-0.01,-0.37,13959.00,0.00,-1.56,0.00,13961.00,0.00,-0.06,0.12,
13967.00,0.00,-0.01,-0.40,13969.00,0.00,-1.56,0.00,13971.00,-0.12,0.00,0.12,
13977.00,0.00,0.00,-0.37,13979.00,0.00,-1.56,0.00,13981.00,-0.25,0.25,0.06,
13987.00,0.02,0.00,-0.36,13988.00,0.00,-1.56,0.00,13989.00,0.00,0.00,0.06,
13997.00,0.03,0.00,-0.38,13999.00,0.00,-1.56,0.00,14001.00,-0.06,0.19,-0.06,
14007.00,0.00,0.00,-0.36,14009.00,0.00,-1.56,0.00,14011.00,-0.12,0.25,0.06,
14017.00,0.02,-0.01,-0.39,14019.00,0.00,-1.56,0.00,14021.00,0.00,0.06,0.19,
14027.00,0.02,0.00,-0.39,14029.00,0.00,-1.56,0.00,14031.00,-0.12,0.00,0.06,
14038.00,0.00,-0.01,-0.37,14039.00,0.00,-1.56,0.00,14041.00,0.00,0.25,-0.06,
14047.00,0.00,-0.04,-0.36,14050.00,0.00,-1.56,0.00,14052.00,-0.06,0.00,0.06,
14057.00,0.00,0.00,-0.40,14059.00,0.00,-1.56,0.00,14061.00,-0.12,0.12,-0.06,
14067.00,0.01,0.01,-0.38,14069.00,0.00,-1.56,0.00,14071.00,-0.12,0.06,-0.12,
14077.00,0.01,-0.02,-0.37,14080.00,0.00,-1.56,0.00,14082.00,0.00,-0.12,0.06,
14088.00,0.00,0.00,-0.37,14089.00,0.00,-1.56,0.00,14090.00,-0.19,-0.19,0.19,
14097.00,0.00,-0.02,-0.38,14099.00,0.00,-1.56,0.00,14101.00,0.06,-0.19,0.12,
14107.00,0.01,0.00,-0.39,14109.00,0.00,-1.56,0.00,14111.00,0.00,-0.12,-0.06,
14117.00,0.00,-0.02,-0.41,14119.00,0.00,-1.56,0.00,14121.00,-0.12,-0.06,0.00,
14128.00,0.01,-0.01,-0.38,14130.00,0.00,-1.56,0.00,14132.00,-0.06,-0.12,0.00,
14138.00,0.00,0.00,-0.39,14139.00,0.00,-1.56,0.00,14141.00,0.06,-0.19,0.06,
14147.00,-0.01,-0.01,-0.38,14150.00,0.00,-1.56,0.00,14152.00,0.00,0.12,0.12,
14158.00,0.00,-0.01,-0.41,14160.00,0.00,-1.56,0.00,14162.00,-0.06,0.00,0.12,
14169.00,0.02,0.00,-0.38,14171.00,0.00,-1.56,0.00,14173.00,0.12,0.12,-0.12,
14179.00,0.00,0.00,-0.39,14181.00,0.00,-1.56,0.00,14183.00,0.06,0.06,0.12,
14188.00,0.00,0.00,-0.36,14189.00,0.00,-1.56,0.00,14190.00,-0.12,0.00,0.06,
14197.00,0.02,0.00,-0.36,14199.00,0.00,-1.56,0.00,14201.00,0.06,0.00,0.06,
14208.00,0.01,-0.01,-0.36,14210.00,0.00,-1.56,0.00,14212.00,-0.06,0.12,0.06,
14218.00,0.00,-0.02,-0.38,14220.00,0.00,-1.56,0.00,14222.00,-0.25,0.12,0.06,
14228.00,0.01,-0.02,-0.36,14230.00,0.00,-1.56,0.00,14232.00,0.12,-0.19,0.12,
14238.00,0.01,-0.01,-0.35,14240.00,0.00,-1.56,0.00,14241.00,0.06,0.00,0.12,
14248.00,0.00,-0.02,-0.39,14251.00,0.00,-1.56,0.00,14253.00,0.06,0.06,0.19,
14259.00,0.01,-0.01,-0.39,14261.00,0.00,-1.56,0.00,14263.00,0.00,0.06,0.00,
14269.00,0.00,0.00,-0.37,14271.00,0.00,-1.56,0.00,14273.00,0.06,0.12,0.06,
14278.00,0.00,-0.01,-0.38,14280.00,0.00,-1.56,0.00,14282.00,0.19,0.06,0.06,
14289.00,0.00,-0.01,-0.37,14290.00,0.00,-1.56,0.00,14291.00,-0.06,-0.12,0.00,
14298.00,0.01,0.00,-0.38,14300.00,0.00,-1.56,0.00,14302.00,0.06,0.19,-0.12,
14308.00,0.00,-0.01,-0.38,14310.00,0.00,-1.56,0.00,14312.00,-0.06,-0.06,0.12,
14319.00,0.01,0.00,-0.40,14321.00,0.00,-1.56,0.00,14323.00,-0.06,-0.19,0.12,
14328.00,0.00,0.01,-0.38,14331.00,0.00,-1.56,0.00,14333.00,-0.06,0.06,0.06,
14339.00,0.00,0.00,-0.36,14341.00,0.00,-1.56,0.00,14342.00,-0.19,0.00,0.19,
14349.00,0.02,-0.02,-0.37,14351.00,0.00,-1.56,0.00,14353.00,0.19,0.12,0.06,
14359.00,0.00,-0.02,-0.37,14361.00,0.00,-1.56,0.00,14363.00,0.00,-0.12,0.06,
14369.00,0.00,-0.02,-0.38,14371.00,0.00,-1.56,0.00,14373.00,0.06,-0.25,0.19,
14380.00,0.01,-0.01,-0.39,14382.00,0.00,-1.56,0.00,14384.00,-0.06,-0.19,0.12,
14390.00,0.01,-0.02,-0.36,14391.00,0.00,-1.56,0.00,14392.00,-0.06,0.00,-0.12,
14398.00,0.01,-0.02,-0.37,14400.00,0.00,-1.56,0.00,14402.00,-0.19,-0.06,0.06,
14408.00,0.03,0.00,-0.35,14410.00,0.00,-1.56,0.00,14412.00,-0.12,0.06,0.06,
14418.00,0.00,0.00,-0.36,14420.00,0.00,-1.56,0.00,14423.00,0.06,-0.12,-0.06,
14429.00,0.02,0.00,-0.40,14431.00,0.00,-1.56,0.00,14433.00,0.12,-0.12,-0.06,
14439.00,0.00,-0.01,-0.37,14441.00,0.00,-1.56,0.00,14442.00,0.00,-0.06,-0.12,
14448.00,0.01,-0.03,-0.37,14450.00,0.00,-1.56,0.00,14452.00,-0.06,0.00,-0.06,
14459.00,0.00,-0.01,-0.36,14461.00,0.00,-1.56,0.00,14464.00,0.06,-0.06,0.06,
14470.00,0.03,-0.01,-0.38,14472.00,0.00,-1.56,0.00,14474.00,-0.06,-0.25,0.06,
14480.00,0.01,-0.01,-0.39,14482.00,0.00,-1.56,0.00,14484.00,-0.25,-0.12,-0.19,
14490.00,0.01,-0.01,-0.38,14491.00,0.00,-1.56,0.00,14492.00,-0.12,0.00,0.06,
14498.00,0.01,-0.01,-0.36,14500.00,0.00,-1.56,0.00,14502.00,0.06,0.06,-0.06,
14510.00,0.02,-0.02,-0.41,14512.00,0.00,-1.56,0.00,14514.00,0.19,0.19,-0.12,
14520.00,0.01,0.00,-0.39,14522.00,0.00,-1.56,0.00,14524.00,0.00,0.00,0.06,
14530.00,0.02,-0.01,-0.39,14532.00,0.00,-1.56,0.00,14534.00,-0.12,0.06,0.06,
14540.00,0.01,0.00,-0.36,14541.00,0.00,-1.56,0.00,14542.00,-0.06,0.06,0.00,
14550.00,0.01,-0.01,-0.37,14552.00,0.00,-1.56,0.00,14554.00,-0.06,0.06,0.12,
14560.00,0.01,0.00,-0.37,14562.00,0.00,-1.56,0.00,14564.00,-0.06,-0.06,0.00,
14570.00,0.01,0.00,-0.40,14572.00,0.00,-1.56,0.00,14574.00,0.00,0.06,-0.12,
14580.00,0.00,0.00,-0.37,14582.00,0.00,-1.56,0.00,14584.00,0.00,-0.12,-0.06,
14590.00,0.01,-0.01,-0.39,14592.00,0.00,-1.56,0.00,14593.00,0.12,0.12,0.06,
14599.00,0.00,0.00,-0.40,14601.00,0.00,-1.56,0.00,14603.00,0.00,0.12,0.06,
14609.00,0.02,-0.02,-0.40,14612.00,0.00,-1.56,0.00,14614.00,0.00,-0.06,-0.06,
14620.00,0.00,0.00,-0.39,14622.00,0.00,-1.56,0.00,14624.00,0.06,0.25,0.00,
14630.00,0.00,0.00,-0.39,14632.00,0.00,-1.56,0.00,14635.00,-0.12,0.00,-0.12,
14641.00,0.01,0.00,-0.38,14642.00,0.00,-1.56,0.00,14643.00,0.12,-0.06,-0.06,
14650.00,0.00,-0.02,-0.35,14652.00,0.00,-1.56,0.00,14654.00,-0.06,0.12,-0.06,
14660.00,0.01,-0.01,-0.37,14662.00,0.00,-1.56,0.00,14664.00,0.00,0.06,-0.06,
14670.00,0.02,-0.01,-0.41,14672.00,0.00,-1.56,0.00,14674.00,-0.06,0.25,-0.06,
14681.00,0.00,0.00,-0.38,14683.00,0.00,-1.56,0.00,14685.00,0.00,0.06,0.06,
14691.00,0.00,0.00,-0.38,14692.00,0.00,-1.56,0.00,14693.00,0.00,0.00,-0.06,
14699.00,0.01,0.00,-0.35,14701.00,0.00,-1.56,0.00,14703.00,0.06,0.00,0.06,
14709.00,0.01,0.00,-0.35,14712.00,0.00,-1.56,0.00,14714.00,0.00,0.12,0.00,
14721.00,0.00,0.00,-0.39,14723.00,0.00,-1.56,0.00,14725.00,-0.06,0.19,0.06,
14731.00,0.02,-0.01,-0.39,14733.00,0.00,-1.56,0.00,14735.00,-0.12,0.19,0.00,
14741.00,-0.01,0.00,-0.37,14742.00,0.00,-1.56,0.00,14743.00,-0.06,0.19,-0.06,
14750.00,0.01,0.00,-0.36,14752.00,0.00,-1.56,0.00,14754.00,0.06,-0.06,-0.06,
14760.00,0.01,-0.01,-0.37,14763.00,0.00,-1.56,0.00,14765.00,-0.12,0.06,0.12,
14771.00,0.00,-0.02,-0.37,14773.00,0.00,-1.56,0.00,14775.00,-0.06,0.00,-0.12,
14781.00,0.00,-0.01,-0.36,14783.00,0.00,-1.56,0.00,14785.00,0.06,0.12,-0.06,
14791.00,0.02,0.00,-0.37,14792.00,0.00,-1.56,0.00,14793.00,-0.12,0.06,-0.06,
14799.00,0.00,-0.03,-0.37,14801.00,0.00,-1.56,0.00,14803.00,0.00,-0.25,0.00,
14811.00,0.02,-0.01,-0.35,14813.00,0.00,-1.56,0.00,14815.00,0.00,-0.06,0.00,
14821.00,0.00,-0.02,-0.39,14823.00,0.00,-1.56,0.00,14825.00,0.00,0.00,0.12,
14831.00,0.00,-0.01,-0.39,14833.00,0.00,-1.56,0.00,14835.00,0.00,-0.12,0.12,
14841.00,0.00,0.01,-0.36,14842.00,0.00,-1.56,0.00,14844.00,0.06,0.00,0.12,
14851.00,0.00,-0.01,-0.36,14853.00,0.00,-1.56,0.00,14855.00,-0.12,-0.06,0.00,
14861.00,0.01,-0.01,-0.35,14863.00,0.00,-1.56,0.00,14865.00,-0.19,0.12,-0.12,
14871.00,0.00,-0.01,-0.39,14873.00,0.00,-1.56,0.00,14875.00,-0.12,0.00,-0.06,
14881.00,0.01,-0.01,-0.37,14883.00,0.00,-1.56,0.00,14885.00,-0.06,0.06,0.00,
14892.00,0.01,0.00,-0.36,14893.00,0.00,-1.56,0.00,14894.00,-0.06,0.00,-0.19,
14900.00,0.00,-0.01,-0.37,14902.00,0.00,-1.56,0.00,14904.00,-0.19,0.00,0.12,
14910.00,0.01,-0.02,-0.38,14912.00,0.00,-1.56,0.00,14914.00,-0.06,-0.06,-0.06,
14921.00,0.00,-0.01,-0.37,14923.00,0.00,-1.56,0.00,14925.00,0.06,-0.12,0.00,
14931.00,0.00,-0.01,-0.36,14934.00,0.00,-1.56,0.00,14936.00,0.00,-0.06,0.00,
14942.00,0.00,-0.01,-0.36,14943.00,0.00,-1.56,0.00,14944.00,-0.06,0.00,0.19,
14951.00,0.02,-0.01,-0.35,14953.00,0.00,-1.56,0.00,14955.00,0.00,-0.06,0.00,
14961.00,0.01,0.00,-0.42,14963.00,0.00,-1.56,0.00,14965.00,0.00,-0.12,0.00,
14971.00,0.00,-0.01,-0.42,14973.00,0.00,-1.56,0.00,14976.00,0.06,0.12,-0.06,
14982.00,0.00,-0.02,-0.37,14984.00,0.00,-1.56,0.00,14986.00,0.06,-0.06,0.12,
14992.00,0.00,-0.01,-0.38,14993.00,0.00,-1.56,0.00,14994.00,0.06,0.00,0.00,
15000.00,0.01,-0.02,-0.36,15002.00,0.00,-1.56,0.00,15004.00,0.12,-0.06,0.19,
15011.00,0.02,-0.01,-0.36,15013.00,0.00,-1.56,0.00,15015.00,-0.06,-0.12,0.12,
15022.00,0.01,0.00,-0.38,15024.00,0.00,-1.56,0.00,15026.00,-0.12,-0.12,-0.06,
15032.00,0.00,-0.03,-0.38,15034.00,0.00,-1.56,0.00,15036.00,-0.19,0.06,0.00,
15042.00,0.01,-0.02,-0.40,15043.00,0.00,-1.56,0.00,15045.00,-0.12,-0.12,-0.12,
15051.00,0.01,-0.01,-0.35,15053.00,0.00,-1.56,0.00,15055.00,-0.06,-0.06,0.06,
15062.00,0.02,-0.04,-0.37,15064.00,0.00,-1.56,0.00,15066.00,-0.06,0.00,-0.06,
15072.00,0.00,0.00,-0.39,15074.00,0.00,-1.56,0.00,15076.00,0.12,-0.06,0.00,
15082.00,0.00,0.01,-0.38,15084.00,0.00,-1.56,0.00,15086.00,0.00,0.19,-0.19,
15092.00,0.02,-0.01,-0.38,15093.00,0.00,-1.56,0.00,15094.00,-0.06,-0.12,-0.12,
15100.00,0.01,-0.01,-0.36,15104.00,0.00,-1.56,0.00,15106.00,0.06,-0.19,-0.12,
15112.00,0.01,0.00,-0.35,15114.00,0.00,-1.56,0.00,15116.00,0.00,-0.12,0.00,
15122.00,0.01,0.00,-0.40,15124.00,0.00,-1.56,0.00,15126.00,-0.12,0.12,-0.06,
15132.00,0.02,-0.02,-0.37,15134.00,0.00,-1.56,0.00,15136.00,0.00,0.06,0.06,
15142.00,0.00,0.00,-0.38,15143.00,0.00,-1.56,0.00,15145.00,0.25,0.00,-0.12,
15152.00,0.01,0.00,-0.38,15154.00,0.00,-1.56,0.00,15156.00,-0.06,-0.06,-0.19,
15162.00,0.00,0.00,-0.38,15164.00,0.00,-1.56,0.00,15166.00,-0.19,-0.12,0.12,
15172.00,0.01,-0.01,-0.38,15174.00,0.00,-1.56,0.00,15176.00,0.00,0.12,-0.12,
15182.00,0.02,-0.02,-0.38,15184.00,0.00,-1.56,0.00,15186.00,0.00,0.00,-0.12,
15193.00,0.02,0.00,-0.36,15194.00,0.00,-1.56,0.00,15195.00,0.12,-0.25,-0.12,
15202.00,0.01,-0.02,-0.36,15204.00,0.00,-1.56,0.00,15206.00,0.06,-0.19,0.06,
15212.00,0.01,0.00,-0.37,15214.00,0.00,-1.56,0.00,15216.00,0.19,0.06,-0.06,
15222.00,0.00,0.00,-0.38,15224.00,0.00,-1.56,0.00,15226.00,0.25,0.06,0.06,
15233.00,0.00,-0.03,-0.37,15235.00,0.00,-1.56,0.00,15237.00,0.12,-0.12,-0.12,
15243.00,0.00,0.00,-0.37,15244.00,0.00,-1.56,0.00,15246.00,0.06,-0.25,0.00,
15252.00,-0.01,0.00,-0.37,15254.00,0.00,-1.56,0.00,15256.00,0.00,-0.19,0.19,
15262.00,0.01,0.00,-0.35,15264.00,0.00,-1.56,0.00,15266.00,0.00,0.00,-0.06,
15272.00,0.01,-0.01,-0.38,15275.00,0.00,-1.56,0.00,15277.00,0.00,-0.12,0.06,
15283.00,0.02,0.00,-0.37,15285.00,0.00,-1.56,0.00,15287.00,0.12,-0.12,0.12,
15293.00,0.02,-0.01,-0.36,15294.00,0.00,-1.56,0.00,15295.00,0.06,0.00,-0.06,
15302.00,0.01,-0.02,-0.37,15304.00,0.00,-1.56,0.00,15306.00,0.06,-0.06,0.00,
15312.00,0.01,0.01,-0.37,15314.00,0.00,-1.56,0.00,15316.00,0.19,-0.19,0.00,
15323.00,0.01,-0.01,-0.43,15325.00,0.00,-1.56,0.00,15327.00,0.06,-0.06,0.06,
15333.00,0.01,0.00,-0.38,15335.00,0.00,-1.56,0.00,15337.00,-0.06,-0.12,0.25,
15343.00,0.00,0.00,-0.36,15344.00,0.00,-1.56,0.00,15346.00,-0.06,0.06,-0.06,
15352.00,0.00,0.00,-0.38,15354.00,0.00,-1.56,0.00,15356.00,0.00,-0.06,-0.06,
15363.00,0.01,-0.01,-0.36,15365.00,0.00,-1.56,0.00,15367.00,0.12,-0.31,0.06,
15373.00,0.03,0.00,-0.42,15375.00,0.00,-1.56,0.00,15377.00,0.06,-0.19,0.12,
15383.00,0.01,-0.02,-0.38,15385.00,0.00,-1.56,0.00,15387.00,0.06,-0.12,0.12,
15393.00,0.01,-0.01,-0.37,15394.00,0.00,-1.56,0.00,15395.00,0.12,-0.12,0.00,
15401.00,0.01,-0.01,-0.36,15404.00,0.00,-1.56,0.00,15406.00,0.06,0.00,-0.06,
15413.00,0.00,0.00,-0.36,15415.00,0.00,-1.56,0.00,15417.00,0.19,-0.19,-0.06,
15423.00,0.00,0.00,-0.36,15425.00,0.00,-1.56,0.00,15427.00,0.00,-0.06,0.06,
15433.00,0.00,-0.01,-0.39,15435.00,0.00,-1.56,0.00,15437.00,0.06,0.00,0.00,
15443.00,0.00,0.00,-0.36,15444.00,0.00,-1.56,0.00,15447.00,0.00,0.06,0.12,
15453.00,0.00,0.00,-0.36,15455.00,0.00,-1.56,0.00,15457.00,0.00,-0.12,0.00,
15463.00,0.01,0.00,-0.38,15465.00,0.00,-1.56,0.00,15467.00,0.06,-0.19,0.12,
15473.00,0.01,-0.01,-0.39,15475.00,0.00,-1.56,0.00,15477.00,0.12,0.00,-0.06,
15483.00,0.02,0.00,-0.38,15485.00,0.00,-1.56,0.00,15488.00,0.12,-0.06,0.06,
15494.00,0.02,-0.03,-0.35,15495.00,0.00,-1.56,0.00,15497.00,-0.06,-0.12,-0.06,
15503.00,0.00,-0.01,-0.35,15505.00,0.00,-1.56,0.00,15507.00,0.06,-0.12,-0.06,
15513.00,0.01,-0.01,-0.35,15515.00,0.00,-1.56,0.00,15517.00,-0.06,0.00,-0.06,
15523.00,0.00,-0.02,-0.37,15525.00,0.00,-1.56,0.00,15527.00,-0.06,-0.19,-0.12,
15534.00,0.02,0.00,-0.37,15536.00,0.00,-1.56,0.00,15538.00,-0.12,0.06,0.00,
15544.00,0.01,-0.01,-0.36,15545.00,0.00,-1.56,0.00,15547.00,0.00,0.06,-0.06,
15553.00,0.01,-0.01,-0.36,15555.00,0.00,-1.56,0.00,15557.00,0.06,0.06,-0.06,
15564.00,0.02,-0.01,-0.36,15566.00,0.00,-1.56,0.00,15568.00,-0.19,0.19,0.12,
15575.00,0.02,0.00,-0.40,15577.00,0.00,-1.56,0.00,15579.00,0.00,0.12,0.06,
15584.00,0.00,-0.02,-0.37,15586.00,0.00,-1.56,0.00,15588.00,-0.06,0.00,0.00,
15594.00,0.00,-0.02,-0.38,15595.00,0.00,-1.56,0.00,15596.00,-0.12,0.00,0.00,
15603.00,0.00,0.00,-0.39,15605.00,0.00,-1.56,0.00,15607.00,0.00,-0.06,-0.06,
15613.00,0.02,-0.02,-0.38,15616.00,0.00,-1.56,0.00,15618.00,-0.12,-0.12,0.00,
15624.00,0.02,-0.02,-0.40,15626.00,0.00,-1.56,0.00,15628.00,0.12,0.00,0.06,
15634.00,0.01,0.00,-0.38,15636.00,0.00,-1.56,0.00,15638.00,-0.06,0.06,-0.12,
15644.00,0.02,0.00,-0.37,15645.00,0.00,-1.56,0.00,15647.00,-0.06,0.12,0.06,
15653.00,0.00,-0.01,-0.38,15655.00,0.00,-1.56,0.00,15657.00,-0.06,0.00,0.00,
15664.00,0.00,-0.02,-0.37,15666.00,0.00,-1.56,0.00,15668.00,-0.06,0.19,0.00,
15674.00,0.01,-0.01,-0.42,15676.00,0.00,-1.56,0.00,15678.00,-0.06,0.00,0.00,
15684.00,0.02,-0.01,-0.37,15686.00,0.00,-1.56,0.00,15688.00,-0.06,0.00,-0.06,
15695.00,0.02,-0.02,-0.38,15696.00,0.00,-1.56,0.00,15697.00,-0.06,-0.12,-0.06,
15704.00,0.04,-0.04,-0.36,15706.00,0.00,-1.56,0.00,15708.00,0.00,0.00,-0.12,
15714.00,0.01,0.00,-0.36,15716.00,0.00,-1.56,0.00,15718.00,-0.06,0.19,-0.12,
15724.00,0.01,-0.01,-0.40,15726.00,0.00,-1.56,0.00,15728.00,-0.06,0.12,0.00,
15734.00,0.01,0.00,-0.36,15736.00,0.00,-1.56,0.00,15738.00,-0.12,0.06,-0.12,
15746.00,0.00,-0.01,-0.36,15747.00,0.00,-1.56,0.00,15749.00,-0.06,0.00,-0.06,
15755.00,0.02,0.00,-0.37,15757.00,0.00,-1.56,0.00,15759.00,0.00,0.12,0.00,
15765.00,0.00,-0.01,-0.36,15767.00,0.00,-1.56,0.00,15769.00,-0.06,0.00,0.12,
15775.00,0.01,-0.01,-0.37,15777.00,0.00,-1.56,0.00,15779.00,0.00,-0.06,-0.06,
15785.00,0.01,0.00,-0.38,15788.00,0.00,-1.56,0.00,15790.00,0.00,0.12,0.00,
15795.00,0.01,-0.02,-0.37,15797.00,0.00,-1.56,0.00,15798.00,-0.19,0.06,0.00,
15804.00,0.02,-0.02,-0.35,15806.00,0.00,-1.56,0.00,15808.00,-0.06,-0.06,0.06,
15814.00,0.01,0.00,-0.37,15816.00,0.00,-1.56,0.00,15818.00,0.06,-0.06,-0.12,
15824.00,0.02,0.00,-0.39,15826.00,0.00,-1.56,0.00,15830.00,0.06,-0.06,0.12,
15835.00,0.02,0.00,-0.38,15837.00,0.00,-1.56,0.00,15839.00,-0.06,-0.12,0.06,
15846.00,0.00,-0.01,-0.36,15847.00,0.00,-1.56,0.00,15848.00,-0.06,0.00,-0.06,
15855.00,0.03,-0.02,-0.35,15857.00,0.00,-1.56,0.00,15859.00,-0.06,0.06,0.06,
15865.00,0.00,0.00,-0.37,15867.00,0.00,-1.56,0.00,15869.00,0.06,0.12,-0.06,
15876.00,0.01,0.00,-0.39,15878.00,0.00,-1.56,0.00,15880.00,0.00,0.12,0.06,
15886.00,0.01,0.00,-0.41,15888.00,0.00,-1.56,0.00,15890.00,-0.19,-0.19,0.00,
15896.00,0.00,-0.02,-0.35,15897.00,0.00,-1.56,0.00,15898.00,0.12,-0.06,0.06,
15904.00,0.02,-0.01,-0.39,15906.00,0.00,-1.56,0.00,15908.00,0.12,-0.19,0.00,
15915.00,0.01,0.00,-0.38,15917.00,0.00,-1.56,0.00,15919.00,0.00,-0.12,-0.12,
15925.00,0.02,0.00,-0.37,15927.00,0.00,-1.56,0.00,15929.00,0.12,0.06,0.19,
15935.00,0.01,0.00,-0.39,15937.00,0.00,-1.56,0.00,15939.00,0.06,0.06,0.12,
15945.00,0.03,-0.01,-0.38,15947.00,0.00,-1.56,0.00,15948.00,-0.06,0.06,0.06,
15954.00,0.01,0.00,-0.37,15956.00,0.00,-1.56,0.00,15959.00,0.06,-0.12,0.06,
15966.00,0.01,0.00,-0.38,15968.00,0.00,-1.56,0.00,15970.00,0.06,0.06,0.06,
15976.00,0.01,0.00,-0.37,15978.00,0.00,-1.56,0.00,15980.00,0.06,0.06,0.12,
15986.00,0.01,0.00,-0.38,15988.00,0.00,-1.56,0.00,15990.00,0.19,0.06,-0.12,
15996.00,0.01,0.00,-0.39,15997.00,0.00,-1.56,0.00,15998.00,0.19,-0.12,0.19,
16005.00,0.00,0.00,-0.39,16007.00,0.00,-1.56,0.00,16009.00,0.00,0.00,0.00,
16015.00,0.01,-0.01,-0.38,16017.00,0.00,-1.56,0.00,16019.00,0.06,0.00,-0.12,
16025.00,0.00,-0.02,-0.38,16028.00,0.00,-1.56,0.00,16030.00,0.06,-0.06,-0.06,
16035.00,0.02,0.00,-0.36,16038.00,0.00,-1.56,0.00,16040.00,0.06,-0.12,0.00,
16047.00,0.00,-0.01,-0.39,16048.00,0.00,-1.56,0.00,16049.00,0.06,-0.06,0.12,
16056.00,0.01,-0.01,-0.36,16058.00,0.00,-1.56,0.00,16060.00,0.12,0.06,0.00,
16066.00,0.00,-0.01,-0.38,16068.00,0.00,-1.56,0.00,16070.00,-0.06,0.06,-0.06,
16076.00,0.01,0.00,-0.40,16078.00,0.00,-1.56,0.00,16080.00,-0.06,0.06,-0.06,
16087.00,0.01,0.00,-0.36,16089.00,0.00,-1.56,0.00,16091.00,0.12,-0.06,0.06,
16097.00,0.00,-0.01,-0.37,16098.00,0.00,-1.56,0.00,16099.00,0.06,0.00,0.06,
16105.00,0.02,0.00,-0.36,16107.00,0.00,-1.56,0.00,16109.00,-0.06,0.06,0.12,
16115.00,0.02,-0.02,-0.36,16118.00,0.00,-1.56,0.00,16120.00,-0.06,0.06,0.12,
16126.00,0.03,0.00,-0.40,16129.00,0.00,-1.56,0.00,16131.00,-0.06,0.06,0.00,
16137.00,0.00,-0.02,-0.39,16139.00,0.00,-1.56,0.00,16141.00,0.12,0.25,0.12,
16147.00,0.01,-0.02,-0.37,16148.00,0.00,-1.56,0.00,16150.00,-0.06,0.25,0.00,
16156.00,0.02,-0.01,-0.40,16158.00,0.00,-1.56,0.00,16160.00,0.00,0.06,0.06,
16166.00,0.00,-0.01,-0.38,16168.00,0.00,-1.56,0.00,16171.00,0.00,0.06,0.06,
16177.00,0.00,0.00,-0.39,16179.00,0.00,-1.56,0.00,16181.00,0.06,-0.06,-0.12,
16187.00,0.01,0.00,-0.38,16189.00,0.00,-1.56,0.00,16191.00,0.00,-0.12,0.00,
16197.00,0.01,0.00,-0.38,16198.00,0.00,-1.56,0.00,16199.00,0.12,0.06,0.06,
16205.00,0.00,-0.01,-0.36,16207.00,0.00,-1.56,0.00,16209.00,0.00,0.00,0.06,
16216.00,0.00,-0.01,-0.36,16218.00,0.00,-1.56,0.00,16220.00,-0.06,0.06,-0.06,
16227.00,-0.01,-0.01,-0.38,16229.00,0.00,-1.56,0.00,16231.00,0.00,0.12,0.19,
16237.00,0.02,-0.01,-0.37,16239.00,0.00,-1.56,0.00,16241.00,0.00,0.25,-0.06,
16247.00,0.01,0.00,-0.36,16248.00,0.00,-1.56,0.00,16250.00,0.06,0.12,-0.06,
16257.00,0.00,-0.01,-0.34,16259.00,0.00,-1.56,0.00,16261.00,0.06,-0.19,-0.12,
16267.00,0.01,0.00,-0.37,16269.00,0.00,-1.56,0.00,16271.00,0.12,-0.06,0.00,
16277.00,0.00,-0.01,-0.37,16279.00,0.00,-1.56,0.00,16281.00,0.06,-0.12,-0.06,
16287.00,0.00,0.01,-0.40,16289.00,0.00,-1.56,0.00,16291.00,0.06,-0.19,0.12,
16297.00,0.02,0.00,-0.36,16299.00,0.00,-1.56,0.00,16300.00,0.12,0.19,0.06,
16306.00,0.00,-0.01,-0.36,16308.00,0.00,-1.56,0.00,16310.00,0.00,0.25,0.12,
16317.00,0.01,0.00,-0.37,16319.00,0.00,-1.56,0.00,16321.00,0.06,0.00,0.12,
16327.00,0.01,-0.01,-0.38,16329.00,0.00,-1.56,0.00,16331.00,-0.06,-0.19,0.12,
16337.00,0.02,-0.03,-0.37,16339.00,0.00,-1.56,0.00,16342.00,0.12,0.06,0.12,
16348.00,0.00,-0.01,-0.35,16349.00,0.00,-1.56,0.00,16351.00,0.06,0.06,0.06,
16357.00,0.02,0.00,-0.36,16359.00,0.00,-1.56,0.00,16361.00,0.00,0.06,0.06,
16367.00,0.01,0.00,-0.34,16369.00,0.00,-1.56,0.00,16371.00,0.12,0.00,0.00,
16377.00,0.00,0.00,-0.40,16379.00,0.00,-1.56,0.00,16381.00,0.06,0.12,-0.06,
16388.00,0.00,0.00,-0.38,16390.00,0.00,-1.56,0.00,16392.00,0.19,-0.06,-0.12,
16398.00,0.01,-0.02,-0.37,16399.00,0.00,-1.56,0.00,16400.00,0.19,-0.12,-0.12,
16406.00,0.01,-0.02,-0.37,16408.00,0.00,-1.56,0.00,16410.00,0.00,-0.12,-0.12,
16416.00,0.00,-0.01,-0.35,16418.00,0.00,-1.56,0.00,16420.00,-0.06,-0.19,0.06,
16427.00,-0.01,0.01,-0.40,16430.00,0.00,-1.56,0.00,16432.00,-0.06,-0.06,0.06,
16438.00,0.02,0.01,-0.36,16440.00,0.00,-1.56,0.00,16442.00,-0.06,0.00,-0.19,
16448.00,0.00,-0.01,-0.37,16449.00,0.00,-1.56,0.00,16450.00,0.00,0.00,-0.12,
16457.00,0.01,-0.01,-0.37,16459.00,0.00,-1.56,0.00,16461.00,0.06,-0.06,0.06,
16467.00,0.00,-0.03,-0.36,16470.00,0.00,-1.56,0.00,16472.00,-0.06,-0.06,0.06,
16478.00,0.02,-0.01,-0.40,16480.00,0.00,-1.56,0.00,16482.00,0.06,0.00,-0.06,
16488.00,0.01,-0.01,-0.37,16490.00,0.00,-1.56,0.00,16492.00,-0.12,0.00,0.12,
16498.00,0.01,0.00,-0.37,16499.00,0.00,-1.56,0.00,16500.00,-0.25,0.06,-0.06,
16506.00,0.01,-0.01,-0.37,16508.00,0.00,-1.56,0.00,16510.00,0.00,0.00,0.06,
16518.00,0.00,-0.01,-0.36,16520.00,0.00,-1.56,0.00,16522.00,0.00,-0.12,-0.12,
16528.00,0.03,0.00,-0.38,16530.00,0.00,-1.56,0.00,16532.00,0.12,0.06,-0.12,
16538.00,0.00,-0.02,-0.39,16540.00,0.00,-1.56,0.00,16542.00,-0.06,0.25,0.19,
16548.00,0.02,0.00,-0.38,16549.00,0.00,-1.56,0.00,16551.00,0.00,0.06,0.06,
16558.00,0.00,0.00,-0.34,16560.00,0.00,-1.56,0.00,16562.00,0.12,-0.12,0.06,
16568.00,0.02,-0.02,-0.36,16570.00,0.00,-1.56,0.00,16572.00,-0.06,-0.12,0.00,
16578.00,0.00,-0.01,-0.40,16580.00,0.00,-1.56,0.00,16582.00,0.06,0.06,0.00,
16588.00,0.01,-0.01,-0.37,16590.00,0.00,-1.56,0.00,16592.00,0.06,-0.06,-0.06,
16599.00,0.02,-0.01,-0.37,16600.00,0.00,-1.56,0.00,16601.00,-0.06,-0.06,-0.12,
16607.00,0.00,-0.02,-0.36,16609.00,0.00,-1.56,0.00,16611.00,-0.12,-0.06,0.00,
16618.00,0.00,0.00,-0.37,16620.00,0.00,-1.56,0.00,16622.00,-0.12,-0.06,0.06,
16628.00,0.00,0.00,-0.40,16630.00,0.00,-1.56,0.00,16632.00,-0.12,0.06,0.06,
16638.00,0.01,0.00,-0.36,16641.00,0.00,-1.56,0.00,16643.00,0.12,-0.06,0.06,
16649.00,0.01,-0.01,-0.38,16650.00,0.00,-1.56,0.00,16651.00,0.12,0.00,0.06,
16658.00,0.03,0.00,-0.35,16660.00,0.00,-1.56,0.00,16662.00,0.12,0.00,0.00,
16668.00,0.00,0.00,-0.40,16670.00,0.00,-1.56,0.00,16672.00,0.00,0.12,-0.06,
16678.00,0.00,-0.01,-0.42,16680.00,0.00,-1.56,0.00,16683.00,-0.06,-0.06,0.12,
16689.00,0.01,-0.01,-0.36,16691.00,0.00,-1.56,0.00,16693.00,0.12,-0.19,0.00,
16699.00,0.02,-0.01,-0.36,16700.00,0.00,-1.56,0.00,16701.00,0.06,-0.25,-0.06,
16708.00,0.01,-0.01,-0.38,16710.00,0.00,-1.56,0.00,16712.00,-0.12,-0.06,-0.06,
16718.00,0.03,-0.02,-0.37,16720.00,0.00,-1.56,0.00,16722.00,0.00,-0.25,0.06,
16729.00,0.00,-0.01,-0.39,16731.00,0.00,-1.56,0.00,16733.00,0.00,-0.12,0.00,
16739.00,0.01,0.00,-0.38,16741.00,0.00,-1.56,0.00,16743.00,-0.06,0.19,0.00,
16749.00,0.04,0.00,-0.37,16750.00,0.00,-1.56,0.00,16752.00,0.12,-0.12,0.06,
16758.00,0.02,-0.01,-0.38,16760.00,0.00,-1.56,0.00,16762.00,0.00,0.06,0.00,
16769.00,0.00,0.00,-0.41,16771.00,0.00,-1.56,0.00,16773.00,0.00,-0.06,0.12,
16779.00,0.00,0.00,-0.37,16781.00,0.00,-1.56,0.00,16783.00,-0.12,-0.19,0.00,
16789.00,0.02,-0.04,-0.37,16791.00,0.00,-1.56,0.00,16793.00,-0.06,0.19,-0.12,
16799.00,0.01,-0.02,-0.38,16800.00,0.00,-1.56,0.00,16801.00,0.00,0.19,-0.12,
16807.00,0.01,0.00,-0.36,16809.00,0.00,-1.56,0.00,16812.00,0.12,-0.06,-0.06,
16819.00,0.02,0.00,-0.39,16821.00,0.00,-1.56,0.00,16823.00,0.00,0.25,-0.06,
16829.00,0.00,0.00,-0.38,16831.00,0.00,-1.56,0.00,16833.00,-0.19,0.12,0.12,
16839.00,0.00,0.00,-0.40,16841.00,0.00,-1.56,0.00,16843.00,-0.19,-0.19,0.00,
16849.00,0.01,-0.01,-0.36,16850.00,0.00,-1.56,0.00,16852.00,0.00,0.06,0.12,
16859.00,0.00,0.00,-0.37,16861.00,0.00,-1.56,0.00,16863.00,0.06,-0.19,0.00,
16869.00,0.02,-0.02,-0.38,16871.00,0.00,-1.56,0.00,16873.00,-0.06,-0.06,-0.06,
16879.00,0.00,-0.02,-0.38,16881.00,0.00,-1.56,0.00,16883.00,-0.06,0.12,-0.12,
16889.00,0.02,-0.03,-0.36,16891.00,0.00,-1.56,0.00,16893.00,0.12,0.00,0.00,
16900.00,0.01,0.00,-0.40,16901.00,0.00,-1.56,0.00,16902.00,-0.06,0.06,-0.06,
16908.00,0.01,-0.01,-0.36,16910.00,0.00,-1.56,0.00,16912.00,-0.06,0.00,0.12,
16918.00,-0.01,0.00,-0.37,16920.00,0.00,-1.56,0.00,16922.00,0.00,0.06,-0.06,
16928.00,0.02,0.00,-0.38,16930.00,0.00,-1.56,0.00,16932.00,-0.12,-0.06,0.06,
16939.00,0.02,-0.03,-0.38,16941.00,0.00,-1.56,0.00,16943.00,0.00,-0.12,0.12,
16950.00,0.00,-0.03,-0.36,16951.00,0.00,-1.56,0.00,16952.00,-0.06,-0.19,0.00,
16958.00,0.00,-0.03,-0.37,16960.00,0.00,-1.56,0.00,16962.00,-0.06,-0.25,0.12,
16969.00,0.01,0.00,-0.39,16971.00,0.00,-1.56,0.00,16973.00,0.06,0.19,0.06,
16979.00,0.02,-0.01,-0.36,16982.00,0.00,-1.56,0.00,16984.00,0.06,0.12,0.06,
16990.00,0.01,-0.01,-0.36,16992.00,0.00,-1.56,0.00,16994.00,-0.19,0.00,0.19,
17000.00,0.02,-0.01,-0.37,17001.00,0.00,-1.56,0.00,17002.00,0.06,-0.12,-0.06,
17009.00,0.01,-0.01,-0.38,17011.00,0.00,-1.56,0.00,17013.00,-0.12,0.00,0.00,
17019.00,0.01,-0.01,-0.37,17021.00,0.00,-1.56,0.00,17024.00,-0.19,0.00,0.00,
17030.00,0.00,-0.01,-0.38,17032.00,0.00,-1.56,0.00,17034.00,0.06,-0.12,0.06,
17040.00,0.02,-0.02,-0.36,17042.00,0.00,-1.56,0.00,17044.00,0.12,-0.12,0.00,
17050.00,0.00,0.00,-0.37,17051.00,0.00,-1.56,0.00,17053.00,0.00,0.00,0.12,
17059.00,0.00,-0.01,-0.37,17061.00,0.00,-1.56,0.00,17063.00,-0.19,-0.06,0.06,
17070.00,0.02,-0.01,-0.37,17072.00,0.00,-1.56,0.00,17075.00,-0.25,-0.06,0.00,
17080.00,0.02,-0.02,-0.39,17083.00,0.00,-1.56,0.00,17085.00,0.12,0.19,-0.06,
17090.00,0.01,0.00,-0.37,17092.00,0.00,-1.56,0.00,17094.00,-0.06,0.00,0.06,
17100.00,0.02,0.00,-0.37,17101.00,0.00,-1.56,0.00,17102.00,-0.06,0.00,-0.12,
17110.00,0.01,0.00,-0.38,17112.00,0.00,-1.56,0.00,17114.00,0.00,0.19,0.06,
17120.00,0.00,-0.03,-0.37,17122.00,0.00,-1.56,0.00,17124.00,0.06,0.12,0.00,
17130.00,0.00,0.00,-0.37,17132.00,0.00,-1.56,0.00,17134.00,0.00,-0.06,-0.12,
17140.00,0.01,0.00,-0.37,17142.00,0.00,-1.56,0.00,17144.00,-0.06,0.19,0.06,
17150.00,0.00,-0.02,-0.37,17152.00,0.00,-1.56,0.00,17154.00,0.00,0.06,-0.06,
17160.00,0.00,-0.01,-0.35,17162.00,0.00,-1.56,0.00,17164.00,-0.06,0.19,0.19,
17170.00,0.00,-0.03,-0.39,17172.00,0.00,-1.56,0.00,17174.00,0.06,0.06,0.00,
17180.00,0.02,-0.02,-0.42,17182.00,0.00,-1.56,0.00,17184.00,0.06,0.00,-0.06,
